thisRow.t,notes,Feature Type,Feature Number,Morph Level,Key,Response Time,participant,session,date,expName,psychopyVersion,frameRate,
,,app,1,55,right,1.4944348335266113,sub1,001,2025-04-19_00h19.36.036,task1,2021.2.3,None,
,,app,1,88,right,0.3030838966369629,sub1,001,2025-04-19_00h19.36.036,task1,2021.2.3,None,
,,app,1,22,left,0.4465813636779785,sub1,001,2025-04-19_00h19.36.036,task1,2021.2.3,None,
,,app,1,99,right,0.22373032569885254,sub1,001,2025-04-19_00h19.36.036,task1,2021.2.3,None,
,,app,1,77,right,0.23453831672668457,sub1,001,2025-04-19_00h19.36.036,task1,2021.2.3,None,
,,app,1,66,right,0.556781530380249,sub1,001,2025-04-19_00h19.36.036,task1,2021.2.3,None,
,,app,1,66,right,0.23286676406860352,sub1,001,2025-04-19_00h19.36.036,task1,2021.2.3,None,
,,app,1,0,left,0.2354264259338379,sub1,001,2025-04-19_00h19.36.036,task1,2021.2.3,None,
,,app,1,99,right,0.24498581886291504,sub1,001,2025-04-19_00h19.36.036,task1,2021.2.3,None,
,,app,1,11,left,0.07779812812805176,sub1,001,2025-04-19_00h19.36.036,task1,2021.2.3,None,
,,app,1,88,right,0.24665522575378418,sub1,001,2025-04-19_00h19.36.036,task1,2021.2.3,None,
,,app,1,99,right,0.27269721031188965,sub1,001,2025-04-19_00h19.36.036,task1,2021.2.3,None,
,,app,1,66,right,0.24965262413024902,sub1,001,2025-04-19_00h19.36.036,task1,2021.2.3,None,
,,app,1,33,left,6.026733875274658,sub1,001,2025-04-19_00h19.36.036,task1,2021.2.3,None,
,,app,1,44,right,0.8976383209228516,sub1,001,2025-04-19_00h19.36.036,task1,2021.2.3,None,
,,app,1,33,left,0.35352373123168945,sub1,001,2025-04-19_00h19.36.036,task1,2021.2.3,None,
,,app,1,77,right,0.42264890670776367,sub1,001,2025-04-19_00h19.36.036,task1,2021.2.3,None,
,,app,1,55,right,0.561438798904419,sub1,001,2025-04-19_00h19.36.036,task1,2021.2.3,None,
,,app,1,66,right,0.27155017852783203,sub1,001,2025-04-19_00h19.36.036,task1,2021.2.3,None,
,,app,1,44,right,1.829998254776001,sub1,001,2025-04-19_00h19.36.036,task1,2021.2.3,None,
,,app,1,44,right,0.2580389976501465,sub1,001,2025-04-19_00h19.36.036,task1,2021.2.3,None,
,,app,1,77,right,0.18818163871765137,sub1,001,2025-04-19_00h19.36.036,task1,2021.2.3,None,
,,app,1,66,right,0.1683647632598877,sub1,001,2025-04-19_00h19.36.036,task1,2021.2.3,None,
,,app,1,66,right,0.23475170135498047,sub1,001,2025-04-19_00h19.36.036,task1,2021.2.3,None,
,,app,1,33,left,1.3181166648864746,sub1,001,2025-04-19_00h19.36.036,task1,2021.2.3,None,
,,app,1,11,left,0.2440626621246338,sub1,001,2025-04-19_00h19.36.036,task1,2021.2.3,None,
,,app,1,22,left,0.24587655067443848,sub1,001,2025-04-19_00h19.36.036,task1,2021.2.3,None,
,,app,1,0,left,0.23158502578735352,sub1,001,2025-04-19_00h19.36.036,task1,2021.2.3,None,
,,app,1,77,right,0.23413801193237305,sub1,001,2025-04-19_00h19.36.036,task1,2021.2.3,None,
,,app,1,33,left,0.8846497535705566,sub1,001,2025-04-19_00h19.36.036,task1,2021.2.3,None,
,,app,1,33,right,0.4053380489349365,sub1,001,2025-04-19_00h19.36.036,task1,2021.2.3,None,
,,app,1,88,right,0.26999902725219727,sub1,001,2025-04-19_00h19.36.036,task1,2021.2.3,None,
,,app,1,0,left,0.25634217262268066,sub1,001,2025-04-19_00h19.36.036,task1,2021.2.3,None,
,,app,1,22,left,0.22522759437561035,sub1,001,2025-04-19_00h19.36.036,task1,2021.2.3,None,
,,app,1,44,right,0.8122029304504395,sub1,001,2025-04-19_00h19.36.036,task1,2021.2.3,None,
,,app,1,88,right,0.2797231674194336,sub1,001,2025-04-19_00h19.36.036,task1,2021.2.3,None,
,,app,1,66,right,0.22365283966064453,sub1,001,2025-04-19_00h19.36.036,task1,2021.2.3,None,
,,app,1,88,right,0.41762661933898926,sub1,001,2025-04-19_00h19.36.036,task1,2021.2.3,None,
,,app,1,33,left,2.3870718479156494,sub1,001,2025-04-19_00h19.36.036,task1,2021.2.3,None,
,,app,1,88,right,0.21825790405273438,sub1,001,2025-04-19_00h19.36.036,task1,2021.2.3,None,
,,app,1,33,right,0.7396636009216309,sub1,001,2025-04-19_00h19.36.036,task1,2021.2.3,None,
,,app,1,55,right,0.264986515045166,sub1,001,2025-04-19_00h19.36.036,task1,2021.2.3,None,
,,app,1,88,right,0.21851658821105957,sub1,001,2025-04-19_00h19.36.036,task1,2021.2.3,None,
,,app,1,0,left,0.24547910690307617,sub1,001,2025-04-19_00h19.36.036,task1,2021.2.3,None,
,,app,1,0,left,0.1991868019104004,sub1,001,2025-04-19_00h19.36.036,task1,2021.2.3,None,
,,app,1,55,right,0.6187994480133057,sub1,001,2025-04-19_00h19.36.036,task1,2021.2.3,None,
,,app,1,33,left,0.3006622791290283,sub1,001,2025-04-19_00h19.36.036,task1,2021.2.3,None,
,,app,1,55,right,0.4509251117706299,sub1,001,2025-04-19_00h19.36.036,task1,2021.2.3,None,
,,app,1,22,left,0.156982421875,sub1,001,2025-04-19_00h19.36.036,task1,2021.2.3,None,
,,app,1,44,right,0.29846620559692383,sub1,001,2025-04-19_00h19.36.036,task1,2021.2.3,None,
,,app,1,22,left,0.47330713272094727,sub1,001,2025-04-19_00h19.36.036,task1,2021.2.3,None,
,,app,1,99,right,0.21910429000854492,sub1,001,2025-04-19_00h19.36.036,task1,2021.2.3,None,
,,app,1,55,right,0.26192164421081543,sub1,001,2025-04-19_00h19.36.036,task1,2021.2.3,None,
,,app,1,77,right,0.24672937393188477,sub1,001,2025-04-19_00h19.36.036,task1,2021.2.3,None,
,,app,1,11,left,0.23215079307556152,sub1,001,2025-04-19_00h19.36.036,task1,2021.2.3,None,
,,app,1,0,left,0.2661254405975342,sub1,001,2025-04-19_00h19.36.036,task1,2021.2.3,None,
,,app,1,0,left,0.2520596981048584,sub1,001,2025-04-19_00h19.36.036,task1,2021.2.3,None,
,,app,1,77,right,0.20485496520996094,sub1,001,2025-04-19_00h19.36.036,task1,2021.2.3,None,
,,app,1,77,right,0.272411584854126,sub1,001,2025-04-19_00h19.36.036,task1,2021.2.3,None,
,,app,1,55,right,0.2243039608001709,sub1,001,2025-04-19_00h19.36.036,task1,2021.2.3,None,
,,app,1,99,right,0.2583630084991455,sub1,001,2025-04-19_00h19.36.036,task1,2021.2.3,None,
,,app,1,11,left,0.3235135078430176,sub1,001,2025-04-19_00h19.36.036,task1,2021.2.3,None,
,,app,1,33,left,1.38519287109375,sub1,001,2025-04-19_00h19.36.036,task1,2021.2.3,None,
,,app,1,77,right,0.34240007400512695,sub1,001,2025-04-19_00h19.36.036,task1,2021.2.3,None,
,,app,1,99,right,0.20462679862976074,sub1,001,2025-04-19_00h19.36.036,task1,2021.2.3,None,
,,app,1,99,right,0.28745412826538086,sub1,001,2025-04-19_00h19.36.036,task1,2021.2.3,None,
,,app,1,55,right,0.2788856029510498,sub1,001,2025-04-19_00h19.36.036,task1,2021.2.3,None,
,,app,1,22,left,0.5424256324768066,sub1,001,2025-04-19_00h19.36.036,task1,2021.2.3,None,
,,app,1,11,left,0.2210841178894043,sub1,001,2025-04-19_00h19.36.036,task1,2021.2.3,None,
,,app,1,88,right,0.49474287033081055,sub1,001,2025-04-19_00h19.36.036,task1,2021.2.3,None,
,,app,1,66,right,0.4641280174255371,sub1,001,2025-04-19_00h19.36.036,task1,2021.2.3,None,
,,app,1,88,right,0.2811737060546875,sub1,001,2025-04-19_00h19.36.036,task1,2021.2.3,None,
,,app,1,88,right,0.3529980182647705,sub1,001,2025-04-19_00h19.36.036,task1,2021.2.3,None,
,,app,1,11,left,0.2553579807281494,sub1,001,2025-04-19_00h19.36.036,task1,2021.2.3,None,
,,app,1,99,right,0.2634460926055908,sub1,001,2025-04-19_00h19.36.036,task1,2021.2.3,None,
,,app,1,22,left,0.9133687019348145,sub1,001,2025-04-19_00h19.36.036,task1,2021.2.3,None,
,,app,1,44,right,1.8968334197998047,sub1,001,2025-04-19_00h19.36.036,task1,2021.2.3,None,
,,app,1,22,left,0.3141202926635742,sub1,001,2025-04-19_00h19.36.036,task1,2021.2.3,None,
,,app,1,33,left,0.808610200881958,sub1,001,2025-04-19_00h19.36.036,task1,2021.2.3,None,
,,app,1,44,right,0.4043850898742676,sub1,001,2025-04-19_00h19.36.036,task1,2021.2.3,None,
,,app,1,11,left,0.2958405017852783,sub1,001,2025-04-19_00h19.36.036,task1,2021.2.3,None,
,,app,1,44,right,0.36735105514526367,sub1,001,2025-04-19_00h19.36.036,task1,2021.2.3,None,
,,app,1,77,right,0.21190142631530762,sub1,001,2025-04-19_00h19.36.036,task1,2021.2.3,None,
,,app,1,22,left,0.35899996757507324,sub1,001,2025-04-19_00h19.36.036,task1,2021.2.3,None,
,,app,1,22,left,0.2770199775695801,sub1,001,2025-04-19_00h19.36.036,task1,2021.2.3,None,
,,app,1,77,right,1.0042033195495605,sub1,001,2025-04-19_00h19.36.036,task1,2021.2.3,None,
,,app,1,11,left,0.3672666549682617,sub1,001,2025-04-19_00h19.36.036,task1,2021.2.3,None,
,,app,1,55,right,0.3875277042388916,sub1,001,2025-04-19_00h19.36.036,task1,2021.2.3,None,
,,app,1,0,left,0.2964925765991211,sub1,001,2025-04-19_00h19.36.036,task1,2021.2.3,None,
,,app,1,66,right,0.456040620803833,sub1,001,2025-04-19_00h19.36.036,task1,2021.2.3,None,
,,app,1,44,right,0.2736225128173828,sub1,001,2025-04-19_00h19.36.036,task1,2021.2.3,None,
,,app,1,66,right,0.2494816780090332,sub1,001,2025-04-19_00h19.36.036,task1,2021.2.3,None,
,,app,1,99,right,0.21785473823547363,sub1,001,2025-04-19_00h19.36.036,task1,2021.2.3,None,
,,app,1,11,left,0.2693915367126465,sub1,001,2025-04-19_00h19.36.036,task1,2021.2.3,None,
,,app,1,55,right,0.4624156951904297,sub1,001,2025-04-19_00h19.36.036,task1,2021.2.3,None,
,,app,1,0,left,0.21501994132995605,sub1,001,2025-04-19_00h19.36.036,task1,2021.2.3,None,
,,app,1,99,right,0.26694440841674805,sub1,001,2025-04-19_00h19.36.036,task1,2021.2.3,None,
,,app,1,44,right,0.3621511459350586,sub1,001,2025-04-19_00h19.36.036,task1,2021.2.3,None,
,,app,1,0,left,0.3121609687805176,sub1,001,2025-04-19_00h19.36.036,task1,2021.2.3,None,
,,app,1,11,left,0.2798957824707031,sub1,001,2025-04-19_00h19.36.036,task1,2021.2.3,None,
,,app,11,99,right,0.06859588623046875,sub1,001,2025-04-19_00h19.36.036,task1,2021.2.3,None,
,,app,11,55,right,0.8617343902587891,sub1,001,2025-04-19_00h19.36.036,task1,2021.2.3,None,
,,app,11,11,left,0.27129268646240234,sub1,001,2025-04-19_00h19.36.036,task1,2021.2.3,None,
,,app,11,33,left,0.8230531215667725,sub1,001,2025-04-19_00h19.36.036,task1,2021.2.3,None,
,,app,11,77,right,0.27382946014404297,sub1,001,2025-04-19_00h19.36.036,task1,2021.2.3,None,
,,app,11,33,right,0.9542510509490967,sub1,001,2025-04-19_00h19.36.036,task1,2021.2.3,None,
,,app,11,22,left,0.22517108917236328,sub1,001,2025-04-19_00h19.36.036,task1,2021.2.3,None,
,,app,11,99,right,0.2503340244293213,sub1,001,2025-04-19_00h19.36.036,task1,2021.2.3,None,
,,app,11,66,right,0.2187802791595459,sub1,001,2025-04-19_00h19.36.036,task1,2021.2.3,None,
,,app,11,99,right,0.25436878204345703,sub1,001,2025-04-19_00h19.36.036,task1,2021.2.3,None,
,,app,11,44,right,0.6312716007232666,sub1,001,2025-04-19_00h19.36.036,task1,2021.2.3,None,
,,app,11,0,left,0.25675320625305176,sub1,001,2025-04-19_00h19.36.036,task1,2021.2.3,None,
,,app,11,88,right,0.2592442035675049,sub1,001,2025-04-19_00h19.36.036,task1,2021.2.3,None,
,,app,11,22,left,0.3165874481201172,sub1,001,2025-04-19_00h19.36.036,task1,2021.2.3,None,
,,app,11,44,right,0.5953857898712158,sub1,001,2025-04-19_00h19.36.036,task1,2021.2.3,None,
,,app,11,33,right,1.9842467308044434,sub1,001,2025-04-19_00h19.36.036,task1,2021.2.3,None,
,,app,11,99,right,0.26911234855651855,sub1,001,2025-04-19_00h19.36.036,task1,2021.2.3,None,
,,app,11,88,right,0.25318455696105957,sub1,001,2025-04-19_00h19.36.036,task1,2021.2.3,None,
,,app,11,44,right,0.30067896842956543,sub1,001,2025-04-19_00h19.36.036,task1,2021.2.3,None,
,,app,11,11,left,0.24481511116027832,sub1,001,2025-04-19_00h19.36.036,task1,2021.2.3,None,
,,app,11,66,right,0.25467848777770996,sub1,001,2025-04-19_00h19.36.036,task1,2021.2.3,None,
,,app,11,44,left,0.28822898864746094,sub1,001,2025-04-19_00h19.36.036,task1,2021.2.3,None,
,,app,11,11,left,0.27184176445007324,sub1,001,2025-04-19_00h19.36.036,task1,2021.2.3,None,
,,app,11,44,left,0.29581284523010254,sub1,001,2025-04-19_00h19.36.036,task1,2021.2.3,None,
,,app,11,55,right,0.4082024097442627,sub1,001,2025-04-19_00h19.36.036,task1,2021.2.3,None,
,,app,11,77,right,0.23537755012512207,sub1,001,2025-04-19_00h19.36.036,task1,2021.2.3,None,
,,app,11,55,right,0.1980760097503662,sub1,001,2025-04-19_00h19.36.036,task1,2021.2.3,None,
,,app,11,66,right,0.25737571716308594,sub1,001,2025-04-19_00h19.36.036,task1,2021.2.3,None,
,,app,11,99,right,0.3215968608856201,sub1,001,2025-04-19_00h19.36.036,task1,2021.2.3,None,
,,app,11,11,left,0.28847670555114746,sub1,001,2025-04-19_00h19.36.036,task1,2021.2.3,None,
,,app,11,55,right,1.4568278789520264,sub1,001,2025-04-19_00h19.36.036,task1,2021.2.3,None,
,,app,11,22,left,0.28198671340942383,sub1,001,2025-04-19_00h19.36.036,task1,2021.2.3,None,
,,app,11,66,right,0.40248703956604004,sub1,001,2025-04-19_00h19.36.036,task1,2021.2.3,None,
,,app,11,55,right,0.3812990188598633,sub1,001,2025-04-19_00h19.36.036,task1,2021.2.3,None,
,,app,11,88,right,0.3229210376739502,sub1,001,2025-04-19_00h19.36.036,task1,2021.2.3,None,
,,app,11,66,right,0.31319427490234375,sub1,001,2025-04-19_00h19.36.036,task1,2021.2.3,None,
,,app,11,88,right,0.27940940856933594,sub1,001,2025-04-19_00h19.36.036,task1,2021.2.3,None,
,,app,11,22,left,0.2658114433288574,sub1,001,2025-04-19_00h19.36.036,task1,2021.2.3,None,
,,app,11,55,left,0.5153226852416992,sub1,001,2025-04-19_00h19.36.036,task1,2021.2.3,None,
,,app,11,66,right,1.0184547901153564,sub1,001,2025-04-19_00h19.36.036,task1,2021.2.3,None,
,,app,11,66,right,0.3250753879547119,sub1,001,2025-04-19_00h19.36.036,task1,2021.2.3,None,
,,app,11,0,left,0.25202131271362305,sub1,001,2025-04-19_00h19.36.036,task1,2021.2.3,None,
,,app,11,33,left,0.23694157600402832,sub1,001,2025-04-19_00h19.36.036,task1,2021.2.3,None,
,,app,11,77,right,0.2618589401245117,sub1,001,2025-04-19_00h19.36.036,task1,2021.2.3,None,
,,app,11,99,right,0.24006104469299316,sub1,001,2025-04-19_00h19.36.036,task1,2021.2.3,None,
,,app,11,11,left,0.25824570655822754,sub1,001,2025-04-19_00h19.36.036,task1,2021.2.3,None,
,,app,11,77,right,0.2357182502746582,sub1,001,2025-04-19_00h19.36.036,task1,2021.2.3,None,
,,app,11,0,left,0.24539780616760254,sub1,001,2025-04-19_00h19.36.036,task1,2021.2.3,None,
,,app,11,88,right,0.25505614280700684,sub1,001,2025-04-19_00h19.36.036,task1,2021.2.3,None,
,,app,11,88,right,0.3036513328552246,sub1,001,2025-04-19_00h19.36.036,task1,2021.2.3,None,
,,app,11,11,left,0.24613738059997559,sub1,001,2025-04-19_00h19.36.036,task1,2021.2.3,None,
,,app,11,44,left,0.39282989501953125,sub1,001,2025-04-19_00h19.36.036,task1,2021.2.3,None,
,,app,11,99,right,0.2591831684112549,sub1,001,2025-04-19_00h19.36.036,task1,2021.2.3,None,
,,app,11,44,left,0.3010833263397217,sub1,001,2025-04-19_00h19.36.036,task1,2021.2.3,None,
,,app,11,0,left,0.07562828063964844,sub1,001,2025-04-19_00h19.36.036,task1,2021.2.3,None,
,,app,11,44,left,0.3727700710296631,sub1,001,2025-04-19_00h19.36.036,task1,2021.2.3,None,
,,app,11,66,right,1.0250189304351807,sub1,001,2025-04-19_00h19.36.036,task1,2021.2.3,None,
,,app,11,22,left,0.2757437229156494,sub1,001,2025-04-19_00h19.36.036,task1,2021.2.3,None,
,,app,11,99,right,0.5329420566558838,sub1,001,2025-04-19_00h19.36.036,task1,2021.2.3,None,
,,app,11,88,right,0.2594943046569824,sub1,001,2025-04-19_00h19.36.036,task1,2021.2.3,None,
,,app,11,0,left,0.24404406547546387,sub1,001,2025-04-19_00h19.36.036,task1,2021.2.3,None,
,,app,11,22,left,0.3335733413696289,sub1,001,2025-04-19_00h19.36.036,task1,2021.2.3,None,
,,app,11,44,left,0.26807546615600586,sub1,001,2025-04-19_00h19.36.036,task1,2021.2.3,None,
,,app,11,77,right,0.25002431869506836,sub1,001,2025-04-19_00h19.36.036,task1,2021.2.3,None,
,,app,11,77,right,0.26187562942504883,sub1,001,2025-04-19_00h19.36.036,task1,2021.2.3,None,
,,app,11,88,right,0.2545480728149414,sub1,001,2025-04-19_00h19.36.036,task1,2021.2.3,None,
,,app,11,22,left,0.272078275680542,sub1,001,2025-04-19_00h19.36.036,task1,2021.2.3,None,
,,app,11,77,right,0.2873423099517822,sub1,001,2025-04-19_00h19.36.036,task1,2021.2.3,None,
,,app,11,77,right,0.2877769470214844,sub1,001,2025-04-19_00h19.36.036,task1,2021.2.3,None,
,,app,11,11,left,0.25608158111572266,sub1,001,2025-04-19_00h19.36.036,task1,2021.2.3,None,
,,app,11,33,left,0.26572585105895996,sub1,001,2025-04-19_00h19.36.036,task1,2021.2.3,None,
,,app,11,33,left,0.28246188163757324,sub1,001,2025-04-19_00h19.36.036,task1,2021.2.3,None,
,,app,11,22,left,0.27483224868774414,sub1,001,2025-04-19_00h19.36.036,task1,2021.2.3,None,
,,app,11,33,left,0.2674293518066406,sub1,001,2025-04-19_00h19.36.036,task1,2021.2.3,None,
,,app,11,88,right,0.2285325527191162,sub1,001,2025-04-19_00h19.36.036,task1,2021.2.3,None,
,,app,11,99,right,0.2388162612915039,sub1,001,2025-04-19_00h19.36.036,task1,2021.2.3,None,
,,app,11,55,right,0.42316269874572754,sub1,001,2025-04-19_00h19.36.036,task1,2021.2.3,None,
,,app,11,66,right,0.2726576328277588,sub1,001,2025-04-19_00h19.36.036,task1,2021.2.3,None,
,,app,11,22,left,0.2749004364013672,sub1,001,2025-04-19_00h19.36.036,task1,2021.2.3,None,
,,app,11,0,left,0.28299880027770996,sub1,001,2025-04-19_00h19.36.036,task1,2021.2.3,None,
,,app,11,66,right,0.25885558128356934,sub1,001,2025-04-19_00h19.36.036,task1,2021.2.3,None,
,,app,11,88,right,0.3080897331237793,sub1,001,2025-04-19_00h19.36.036,task1,2021.2.3,None,
,,app,11,0,left,0.25161290168762207,sub1,001,2025-04-19_00h19.36.036,task1,2021.2.3,None,
,,app,11,55,right,0.2926032543182373,sub1,001,2025-04-19_00h19.36.036,task1,2021.2.3,None,
,,app,11,33,left,0.3166649341583252,sub1,001,2025-04-19_00h19.36.036,task1,2021.2.3,None,
,,app,11,22,left,0.22688555717468262,sub1,001,2025-04-19_00h19.36.036,task1,2021.2.3,None,
,,app,11,77,right,0.29395198822021484,sub1,001,2025-04-19_00h19.36.036,task1,2021.2.3,None,
,,app,11,11,left,0.276674747467041,sub1,001,2025-04-19_00h19.36.036,task1,2021.2.3,None,
,,app,11,33,left,0.3737063407897949,sub1,001,2025-04-19_00h19.36.036,task1,2021.2.3,None,
,,app,11,55,right,0.4735903739929199,sub1,001,2025-04-19_00h19.36.036,task1,2021.2.3,None,
,,app,11,99,right,0.4268150329589844,sub1,001,2025-04-19_00h19.36.036,task1,2021.2.3,None,
,,app,11,33,left,0.2377772331237793,sub1,001,2025-04-19_00h19.36.036,task1,2021.2.3,None,
,,app,11,77,right,0.28045225143432617,sub1,001,2025-04-19_00h19.36.036,task1,2021.2.3,None,
,,app,11,0,left,0.2729959487915039,sub1,001,2025-04-19_00h19.36.036,task1,2021.2.3,None,
,,app,11,55,right,0.8098406791687012,sub1,001,2025-04-19_00h19.36.036,task1,2021.2.3,None,
,,app,11,44,right,0.3724675178527832,sub1,001,2025-04-19_00h19.36.036,task1,2021.2.3,None,
,,app,11,0,left,0.3213984966278076,sub1,001,2025-04-19_00h19.36.036,task1,2021.2.3,None,
,,app,11,11,left,0.29644274711608887,sub1,001,2025-04-19_00h19.36.036,task1,2021.2.3,None,
,,app,11,0,left,0.2726607322692871,sub1,001,2025-04-19_00h19.36.036,task1,2021.2.3,None,
,,app,11,11,left,0.3531985282897949,sub1,001,2025-04-19_00h19.36.036,task1,2021.2.3,None,
,,sha,1,11,left,0.6717193126678467,sub1,001,2025-04-19_00h19.36.036,task1,2021.2.3,None,
,,sha,1,44,left,2.105146646499634,sub1,001,2025-04-19_00h19.36.036,task1,2021.2.3,None,
,,sha,1,66,right,0.8496134281158447,sub1,001,2025-04-19_00h19.36.036,task1,2021.2.3,None,
,,sha,1,22,left,0.3134765625,sub1,001,2025-04-19_00h19.36.036,task1,2021.2.3,None,
,,sha,1,22,left,0.3458547592163086,sub1,001,2025-04-19_00h19.36.036,task1,2021.2.3,None,
,,sha,1,66,right,0.3112778663635254,sub1,001,2025-04-19_00h19.36.036,task1,2021.2.3,None,
,,sha,1,33,left,0.4768717288970947,sub1,001,2025-04-19_00h19.36.036,task1,2021.2.3,None,
,,sha,1,22,left,0.3664374351501465,sub1,001,2025-04-19_00h19.36.036,task1,2021.2.3,None,
,,sha,1,88,right,0.29816341400146484,sub1,001,2025-04-19_00h19.36.036,task1,2021.2.3,None,
,,sha,1,44,right,1.2111914157867432,sub1,001,2025-04-19_00h19.36.036,task1,2021.2.3,None,
,,sha,1,11,left,0.5507111549377441,sub1,001,2025-04-19_00h19.36.036,task1,2021.2.3,None,
,,sha,1,77,right,0.28308558464050293,sub1,001,2025-04-19_00h19.36.036,task1,2021.2.3,None,
,,sha,1,33,left,0.3408010005950928,sub1,001,2025-04-19_00h19.36.036,task1,2021.2.3,None,
,,sha,1,11,left,0.29726529121398926,sub1,001,2025-04-19_00h19.36.036,task1,2021.2.3,None,
,,sha,1,22,left,0.27387547492980957,sub1,001,2025-04-19_00h19.36.036,task1,2021.2.3,None,
,,sha,1,11,left,0.2668888568878174,sub1,001,2025-04-19_00h19.36.036,task1,2021.2.3,None,
,,sha,1,0,left,0.25978732109069824,sub1,001,2025-04-19_00h19.36.036,task1,2021.2.3,None,
,,sha,1,33,left,0.3245830535888672,sub1,001,2025-04-19_00h19.36.036,task1,2021.2.3,None,
,,sha,1,33,left,0.4262409210205078,sub1,001,2025-04-19_00h19.36.036,task1,2021.2.3,None,
,,sha,1,88,right,0.36576151847839355,sub1,001,2025-04-19_00h19.36.036,task1,2021.2.3,None,
,,sha,1,44,right,0.49027180671691895,sub1,001,2025-04-19_00h19.36.036,task1,2021.2.3,None,
,,sha,1,55,right,0.4343738555908203,sub1,001,2025-04-19_00h19.36.036,task1,2021.2.3,None,
,,sha,1,44,right,0.5889356136322021,sub1,001,2025-04-19_00h19.36.036,task1,2021.2.3,None,
,,sha,1,55,right,1.1453936100006104,sub1,001,2025-04-19_00h19.36.036,task1,2021.2.3,None,
,,sha,1,88,right,0.34357213973999023,sub1,001,2025-04-19_00h19.36.036,task1,2021.2.3,None,
,,sha,1,55,right,0.358051061630249,sub1,001,2025-04-19_00h19.36.036,task1,2021.2.3,None,
,,sha,1,22,left,0.49108123779296875,sub1,001,2025-04-19_00h19.36.036,task1,2021.2.3,None,
,,sha,1,55,left,0.899285078048706,sub1,001,2025-04-19_00h19.36.036,task1,2021.2.3,None,
,,sha,1,99,right,0.4587833881378174,sub1,001,2025-04-19_00h19.36.036,task1,2021.2.3,None,
,,sha,1,22,left,0.6752729415893555,sub1,001,2025-04-19_00h19.36.036,task1,2021.2.3,None,
,,sha,1,99,right,0.2925233840942383,sub1,001,2025-04-19_00h19.36.036,task1,2021.2.3,None,
,,sha,1,66,right,0.6277763843536377,sub1,001,2025-04-19_00h19.36.036,task1,2021.2.3,None,
,,sha,1,88,right,0.38333940505981445,sub1,001,2025-04-19_00h19.36.036,task1,2021.2.3,None,
,,sha,1,22,left,0.2500147819519043,sub1,001,2025-04-19_00h19.36.036,task1,2021.2.3,None,
,,sha,1,99,right,0.2671937942504883,sub1,001,2025-04-19_00h19.36.036,task1,2021.2.3,None,
,,sha,1,55,left,3.171055316925049,sub1,001,2025-04-19_00h19.36.036,task1,2021.2.3,None,
,,sha,1,99,right,0.3073151111602783,sub1,001,2025-04-19_00h19.36.036,task1,2021.2.3,None,
,,sha,1,88,right,0.22637629508972168,sub1,001,2025-04-19_00h19.36.036,task1,2021.2.3,None,
,,sha,1,55,right,0.34731578826904297,sub1,001,2025-04-19_00h19.36.036,task1,2021.2.3,None,
,,sha,1,55,right,0.5786311626434326,sub1,001,2025-04-19_00h19.36.036,task1,2021.2.3,None,
,,sha,1,66,right,0.43964695930480957,sub1,001,2025-04-19_00h19.36.036,task1,2021.2.3,None,
,,sha,1,11,left,0.2897205352783203,sub1,001,2025-04-19_00h19.36.036,task1,2021.2.3,None,
,,sha,1,0,left,0.20867681503295898,sub1,001,2025-04-19_00h19.36.036,task1,2021.2.3,None,
,,sha,1,33,left,0.284076452255249,sub1,001,2025-04-19_00h19.36.036,task1,2021.2.3,None,
,,sha,1,22,left,0.26145339012145996,sub1,001,2025-04-19_00h19.36.036,task1,2021.2.3,None,
,,sha,1,22,left,0.2788980007171631,sub1,001,2025-04-19_00h19.36.036,task1,2021.2.3,None,
,,sha,1,44,left,0.38287878036499023,sub1,001,2025-04-19_00h19.36.036,task1,2021.2.3,None,
,,sha,1,77,right,0.521759033203125,sub1,001,2025-04-19_00h19.36.036,task1,2021.2.3,None,
,,sha,1,99,right,0.33809971809387207,sub1,001,2025-04-19_00h19.36.036,task1,2021.2.3,None,
,,sha,1,99,right,0.38147568702697754,sub1,001,2025-04-19_00h19.36.036,task1,2021.2.3,None,
,,sha,1,0,left,0.27481603622436523,sub1,001,2025-04-19_00h19.36.036,task1,2021.2.3,None,
,,sha,1,88,right,0.3393988609313965,sub1,001,2025-04-19_00h19.36.036,task1,2021.2.3,None,
,,sha,1,0,left,0.6902360916137695,sub1,001,2025-04-19_00h19.36.036,task1,2021.2.3,None,
,,sha,1,88,right,0.314084529876709,sub1,001,2025-04-19_00h19.36.036,task1,2021.2.3,None,
,,sha,1,0,left,0.2889838218688965,sub1,001,2025-04-19_00h19.36.036,task1,2021.2.3,None,
,,sha,1,0,left,0.3207371234893799,sub1,001,2025-04-19_00h19.36.036,task1,2021.2.3,None,
,,sha,1,77,right,0.30313968658447266,sub1,001,2025-04-19_00h19.36.036,task1,2021.2.3,None,
,,sha,1,44,left,2.6857264041900635,sub1,001,2025-04-19_00h19.36.036,task1,2021.2.3,None,
,,sha,1,66,right,0.5112030506134033,sub1,001,2025-04-19_00h19.36.036,task1,2021.2.3,None,
,,sha,1,44,left,0.3112185001373291,sub1,001,2025-04-19_00h19.36.036,task1,2021.2.3,None,
,,sha,1,88,right,0.26181459426879883,sub1,001,2025-04-19_00h19.36.036,task1,2021.2.3,None,
,,sha,1,33,left,0.28804469108581543,sub1,001,2025-04-19_00h19.36.036,task1,2021.2.3,None,
,,sha,1,77,right,0.28820323944091797,sub1,001,2025-04-19_00h19.36.036,task1,2021.2.3,None,
,,sha,1,11,left,0.2222309112548828,sub1,001,2025-04-19_00h19.36.036,task1,2021.2.3,None,
,,sha,1,77,right,0.32895398139953613,sub1,001,2025-04-19_00h19.36.036,task1,2021.2.3,None,
,,sha,1,77,right,0.2707936763763428,sub1,001,2025-04-19_00h19.36.036,task1,2021.2.3,None,
,,sha,1,44,left,0.3921079635620117,sub1,001,2025-04-19_00h19.36.036,task1,2021.2.3,None,
,,sha,1,0,left,0.2756969928741455,sub1,001,2025-04-19_00h19.36.036,task1,2021.2.3,None,
,,sha,1,11,left,0.29274797439575195,sub1,001,2025-04-19_00h19.36.036,task1,2021.2.3,None,
,,sha,1,88,right,0.276111364364624,sub1,001,2025-04-19_00h19.36.036,task1,2021.2.3,None,
,,sha,1,33,left,0.2929408550262451,sub1,001,2025-04-19_00h19.36.036,task1,2021.2.3,None,
,,sha,1,77,right,0.24410486221313477,sub1,001,2025-04-19_00h19.36.036,task1,2021.2.3,None,
,,sha,1,22,left,0.2548079490661621,sub1,001,2025-04-19_00h19.36.036,task1,2021.2.3,None,
,,sha,1,88,right,0.24746179580688477,sub1,001,2025-04-19_00h19.36.036,task1,2021.2.3,None,
,,sha,1,55,left,0.3447144031524658,sub1,001,2025-04-19_00h19.36.036,task1,2021.2.3,None,
,,sha,1,99,right,0.19134736061096191,sub1,001,2025-04-19_00h19.36.036,task1,2021.2.3,None,
,,sha,1,77,right,0.3944985866546631,sub1,001,2025-04-19_00h19.36.036,task1,2021.2.3,None,
,,sha,1,11,left,0.2552344799041748,sub1,001,2025-04-19_00h19.36.036,task1,2021.2.3,None,
,,sha,1,44,left,0.27127695083618164,sub1,001,2025-04-19_00h19.36.036,task1,2021.2.3,None,
,,sha,1,55,left,0.43362951278686523,sub1,001,2025-04-19_00h19.36.036,task1,2021.2.3,None,
,,sha,1,66,left,0.4026618003845215,sub1,001,2025-04-19_00h19.36.036,task1,2021.2.3,None,
,,sha,1,33,left,0.2862708568572998,sub1,001,2025-04-19_00h19.36.036,task1,2021.2.3,None,
,,sha,1,0,left,0.25330018997192383,sub1,001,2025-04-19_00h19.36.036,task1,2021.2.3,None,
,,sha,1,66,right,0.32679033279418945,sub1,001,2025-04-19_00h19.36.036,task1,2021.2.3,None,
,,sha,1,66,right,0.3330235481262207,sub1,001,2025-04-19_00h19.36.036,task1,2021.2.3,None,
,,sha,1,99,right,0.5621170997619629,sub1,001,2025-04-19_00h19.36.036,task1,2021.2.3,None,
,,sha,1,77,right,0.30462145805358887,sub1,001,2025-04-19_00h19.36.036,task1,2021.2.3,None,
,,sha,1,11,left,0.30184173583984375,sub1,001,2025-04-19_00h19.36.036,task1,2021.2.3,None,
,,sha,1,0,left,0.6142375469207764,sub1,001,2025-04-19_00h19.36.036,task1,2021.2.3,None,
,,sha,1,55,right,1.7520530223846436,sub1,001,2025-04-19_00h19.36.036,task1,2021.2.3,None,
,,sha,1,33,left,0.2789802551269531,sub1,001,2025-04-19_00h19.36.036,task1,2021.2.3,None,
,,sha,1,33,left,0.3354315757751465,sub1,001,2025-04-19_00h19.36.036,task1,2021.2.3,None,
,,sha,1,44,left,0.3418588638305664,sub1,001,2025-04-19_00h19.36.036,task1,2021.2.3,None,
,,sha,1,77,right,0.36316800117492676,sub1,001,2025-04-19_00h19.36.036,task1,2021.2.3,None,
,,sha,1,99,right,0.327805757522583,sub1,001,2025-04-19_00h19.36.036,task1,2021.2.3,None,
,,sha,1,99,right,0.4048035144805908,sub1,001,2025-04-19_00h19.36.036,task1,2021.2.3,None,
,,sha,1,66,right,0.4094977378845215,sub1,001,2025-04-19_00h19.36.036,task1,2021.2.3,None,
,,sha,1,66,right,0.42090487480163574,sub1,001,2025-04-19_00h19.36.036,task1,2021.2.3,None,
,,sha,1,0,left,0.351865291595459,sub1,001,2025-04-19_00h19.36.036,task1,2021.2.3,None,
,,sha,1,11,left,0.2931947708129883,sub1,001,2025-04-19_00h19.36.036,task1,2021.2.3,None,
,,sha,11,44,left,1.2443232536315918,sub1,001,2025-04-19_00h19.36.036,task1,2021.2.3,None,
,,sha,11,66,right,0.3266279697418213,sub1,001,2025-04-19_00h19.36.036,task1,2021.2.3,None,
,,sha,11,99,right,0.2618722915649414,sub1,001,2025-04-19_00h19.36.036,task1,2021.2.3,None,
,,sha,11,99,right,0.23792672157287598,sub1,001,2025-04-19_00h19.36.036,task1,2021.2.3,None,
,,sha,11,0,left,0.2553281784057617,sub1,001,2025-04-19_00h19.36.036,task1,2021.2.3,None,
,,sha,11,66,right,0.5529811382293701,sub1,001,2025-04-19_00h19.36.036,task1,2021.2.3,None,
,,sha,11,77,right,0.31710052490234375,sub1,001,2025-04-19_00h19.36.036,task1,2021.2.3,None,
,,sha,11,33,left,1.0273942947387695,sub1,001,2025-04-19_00h19.36.036,task1,2021.2.3,None,
,,sha,11,22,left,0.3337740898132324,sub1,001,2025-04-19_00h19.36.036,task1,2021.2.3,None,
,,sha,11,77,right,0.27689433097839355,sub1,001,2025-04-19_00h19.36.036,task1,2021.2.3,None,
,,sha,11,77,right,0.7729387283325195,sub1,001,2025-04-19_00h19.36.036,task1,2021.2.3,None,
,,sha,11,11,left,0.26537132263183594,sub1,001,2025-04-19_00h19.36.036,task1,2021.2.3,None,
,,sha,11,11,left,0.24962711334228516,sub1,001,2025-04-19_00h19.36.036,task1,2021.2.3,None,
,,sha,11,55,left,1.0919528007507324,sub1,001,2025-04-19_00h19.36.036,task1,2021.2.3,None,
,,sha,11,44,right,0.46843934059143066,sub1,001,2025-04-19_00h19.36.036,task1,2021.2.3,None,
,,sha,11,88,right,0.4366440773010254,sub1,001,2025-04-19_00h19.36.036,task1,2021.2.3,None,
,,sha,11,0,left,0.22329306602478027,sub1,001,2025-04-19_00h19.36.036,task1,2021.2.3,None,
,,sha,11,88,right,0.32994532585144043,sub1,001,2025-04-19_00h19.36.036,task1,2021.2.3,None,
,,sha,11,44,left,1.3749983310699463,sub1,001,2025-04-19_00h19.36.036,task1,2021.2.3,None,
,,sha,11,44,left,0.364565372467041,sub1,001,2025-04-19_00h19.36.036,task1,2021.2.3,None,
,,sha,11,66,right,0.32937049865722656,sub1,001,2025-04-19_00h19.36.036,task1,2021.2.3,None,
,,sha,11,11,left,0.25583791732788086,sub1,001,2025-04-19_00h19.36.036,task1,2021.2.3,None,
,,sha,11,22,left,0.32804155349731445,sub1,001,2025-04-19_00h19.36.036,task1,2021.2.3,None,
,,sha,11,66,right,0.3988046646118164,sub1,001,2025-04-19_00h19.36.036,task1,2021.2.3,None,
,,sha,11,33,left,1.45025634765625,sub1,001,2025-04-19_00h19.36.036,task1,2021.2.3,None,
,,sha,11,88,right,0.2453455924987793,sub1,001,2025-04-19_00h19.36.036,task1,2021.2.3,None,
,,sha,11,55,right,0.2553372383117676,sub1,001,2025-04-19_00h19.36.036,task1,2021.2.3,None,
,,sha,11,99,right,0.28763413429260254,sub1,001,2025-04-19_00h19.36.036,task1,2021.2.3,None,
,,sha,11,11,left,0.26438450813293457,sub1,001,2025-04-19_00h19.36.036,task1,2021.2.3,None,
,,sha,11,0,left,0.2654459476470947,sub1,001,2025-04-19_00h19.36.036,task1,2021.2.3,None,
,,sha,11,88,right,0.23496770858764648,sub1,001,2025-04-19_00h19.36.036,task1,2021.2.3,None,
,,sha,11,55,right,1.2286272048950195,sub1,001,2025-04-19_00h19.36.036,task1,2021.2.3,None,
,,sha,11,33,left,1.1114072799682617,sub1,001,2025-04-19_00h19.36.036,task1,2021.2.3,None,
,,sha,11,66,right,0.4378502368927002,sub1,001,2025-04-19_00h19.36.036,task1,2021.2.3,None,
,,sha,11,55,right,0.8720097541809082,sub1,001,2025-04-19_00h19.36.036,task1,2021.2.3,None,
,,sha,11,66,right,0.4094057083129883,sub1,001,2025-04-19_00h19.36.036,task1,2021.2.3,None,
,,sha,11,55,right,0.39566469192504883,sub1,001,2025-04-19_00h19.36.036,task1,2021.2.3,None,
,,sha,11,77,right,0.4081857204437256,sub1,001,2025-04-19_00h19.36.036,task1,2021.2.3,None,
,,sha,11,88,right,0.33190202713012695,sub1,001,2025-04-19_00h19.36.036,task1,2021.2.3,None,
,,sha,11,0,left,0.2581956386566162,sub1,001,2025-04-19_00h19.36.036,task1,2021.2.3,None,
,,sha,11,22,left,0.2668325901031494,sub1,001,2025-04-19_00h19.36.036,task1,2021.2.3,None,
,,sha,11,0,left,0.27579712867736816,sub1,001,2025-04-19_00h19.36.036,task1,2021.2.3,None,
,,sha,11,99,right,0.29277777671813965,sub1,001,2025-04-19_00h19.36.036,task1,2021.2.3,None,
,,sha,11,33,left,0.308396577835083,sub1,001,2025-04-19_00h19.36.036,task1,2021.2.3,None,
,,sha,11,44,left,0.5552935600280762,sub1,001,2025-04-19_00h19.36.036,task1,2021.2.3,None,
,,sha,11,55,left,0.6390485763549805,sub1,001,2025-04-19_00h19.36.036,task1,2021.2.3,None,
,,sha,11,0,left,0.24973607063293457,sub1,001,2025-04-19_00h19.36.036,task1,2021.2.3,None,
,,sha,11,77,right,0.38784193992614746,sub1,001,2025-04-19_00h19.36.036,task1,2021.2.3,None,
,,sha,11,33,left,0.33454036712646484,sub1,001,2025-04-19_00h19.36.036,task1,2021.2.3,None,
,,sha,11,66,left,0.8130910396575928,sub1,001,2025-04-19_00h19.36.036,task1,2021.2.3,None,
,,sha,11,44,left,0.4001140594482422,sub1,001,2025-04-19_00h19.36.036,task1,2021.2.3,None,
,,sha,11,33,left,0.4194529056549072,sub1,001,2025-04-19_00h19.36.036,task1,2021.2.3,None,
,,sha,11,55,left,0.35758090019226074,sub1,001,2025-04-19_00h19.36.036,task1,2021.2.3,None,
,,sha,11,88,right,0.2424304485321045,sub1,001,2025-04-19_00h19.36.036,task1,2021.2.3,None,
,,sha,11,88,right,0.26099658012390137,sub1,001,2025-04-19_00h19.36.036,task1,2021.2.3,None,
,,sha,11,22,left,0.28565478324890137,sub1,001,2025-04-19_00h19.36.036,task1,2021.2.3,None,
,,sha,11,11,left,0.2842752933502197,sub1,001,2025-04-19_00h19.36.036,task1,2021.2.3,None,
,,sha,11,22,left,0.2912776470184326,sub1,001,2025-04-19_00h19.36.036,task1,2021.2.3,None,
,,sha,11,11,left,0.29312753677368164,sub1,001,2025-04-19_00h19.36.036,task1,2021.2.3,None,
,,sha,11,22,left,0.2597849369049072,sub1,001,2025-04-19_00h19.36.036,task1,2021.2.3,None,
,,sha,11,99,right,0.2763369083404541,sub1,001,2025-04-19_00h19.36.036,task1,2021.2.3,None,
,,sha,11,77,right,0.293032169342041,sub1,001,2025-04-19_00h19.36.036,task1,2021.2.3,None,
,,sha,11,0,left,0.2439420223236084,sub1,001,2025-04-19_00h19.36.036,task1,2021.2.3,None,
,,sha,11,55,left,1.3827717304229736,sub1,001,2025-04-19_00h19.36.036,task1,2021.2.3,None,
,,sha,11,77,right,0.4744892120361328,sub1,001,2025-04-19_00h19.36.036,task1,2021.2.3,None,
,,sha,11,55,right,0.28444671630859375,sub1,001,2025-04-19_00h19.36.036,task1,2021.2.3,None,
,,sha,11,33,left,0.22653841972351074,sub1,001,2025-04-19_00h19.36.036,task1,2021.2.3,None,
,,sha,11,11,left,0.30940675735473633,sub1,001,2025-04-19_00h19.36.036,task1,2021.2.3,None,
,,sha,11,77,right,0.34923720359802246,sub1,001,2025-04-19_00h19.36.036,task1,2021.2.3,None,
,,sha,11,22,left,0.2504544258117676,sub1,001,2025-04-19_00h19.36.036,task1,2021.2.3,None,
,,sha,11,66,left,0.2829780578613281,sub1,001,2025-04-19_00h19.36.036,task1,2021.2.3,None,
,,sha,11,88,right,0.37099409103393555,sub1,001,2025-04-19_00h19.36.036,task1,2021.2.3,None,
,,sha,11,11,left,0.22397255897521973,sub1,001,2025-04-19_00h19.36.036,task1,2021.2.3,None,
,,sha,11,77,right,0.2573850154876709,sub1,001,2025-04-19_00h19.36.036,task1,2021.2.3,None,
,,sha,11,33,left,0.2907700538635254,sub1,001,2025-04-19_00h19.36.036,task1,2021.2.3,None,
,,sha,11,88,right,0.2817833423614502,sub1,001,2025-04-19_00h19.36.036,task1,2021.2.3,None,
,,sha,11,33,left,0.3232412338256836,sub1,001,2025-04-19_00h19.36.036,task1,2021.2.3,None,
,,sha,11,0,left,0.21610474586486816,sub1,001,2025-04-19_00h19.36.036,task1,2021.2.3,None,
,,sha,11,99,right,0.22605609893798828,sub1,001,2025-04-19_00h19.36.036,task1,2021.2.3,None,
,,sha,11,88,right,0.2048633098602295,sub1,001,2025-04-19_00h19.36.036,task1,2021.2.3,None,
,,sha,11,33,left,0.7362453937530518,sub1,001,2025-04-19_00h19.36.036,task1,2021.2.3,None,
,,sha,11,11,left,0.2704164981842041,sub1,001,2025-04-19_00h19.36.036,task1,2021.2.3,None,
,,sha,11,99,right,0.2864673137664795,sub1,001,2025-04-19_00h19.36.036,task1,2021.2.3,None,
,,sha,11,0,left,0.24565696716308594,sub1,001,2025-04-19_00h19.36.036,task1,2021.2.3,None,
,,sha,11,44,left,1.207486629486084,sub1,001,2025-04-19_00h19.36.036,task1,2021.2.3,None,
,,sha,11,99,right,1.122175693511963,sub1,001,2025-04-19_00h19.36.036,task1,2021.2.3,None,
,,sha,11,0,left,0.288982629776001,sub1,001,2025-04-19_00h19.36.036,task1,2021.2.3,None,
,,sha,11,99,right,0.2898528575897217,sub1,001,2025-04-19_00h19.36.036,task1,2021.2.3,None,
,,sha,11,44,right,0.4974403381347656,sub1,001,2025-04-19_00h19.36.036,task1,2021.2.3,None,
,,sha,11,99,right,0.08984589576721191,sub1,001,2025-04-19_00h19.36.036,task1,2021.2.3,None,
,,sha,11,66,left,0.353039026260376,sub1,001,2025-04-19_00h19.36.036,task1,2021.2.3,None,
,,sha,11,11,left,0.2628755569458008,sub1,001,2025-04-19_00h19.36.036,task1,2021.2.3,None,
,,sha,11,44,left,0.2959129810333252,sub1,001,2025-04-19_00h19.36.036,task1,2021.2.3,None,
,,sha,11,55,left,0.47037506103515625,sub1,001,2025-04-19_00h19.36.036,task1,2021.2.3,None,
,,sha,11,44,left,0.35922813415527344,sub1,001,2025-04-19_00h19.36.036,task1,2021.2.3,None,
,,sha,11,22,left,0.3314344882965088,sub1,001,2025-04-19_00h19.36.036,task1,2021.2.3,None,
,,sha,11,22,left,0.2830390930175781,sub1,001,2025-04-19_00h19.36.036,task1,2021.2.3,None,
,,sha,11,22,left,0.3142681121826172,sub1,001,2025-04-19_00h19.36.036,task1,2021.2.3,None,
,,sha,11,77,right,0.2732844352722168,sub1,001,2025-04-19_00h19.36.036,task1,2021.2.3,None,
,,sha,11,66,right,0.28084778785705566,sub1,001,2025-04-19_00h19.36.036,task1,2021.2.3,None,
