thisRow.t,notes,Feature Type,Feature Number,Morph Level,Key,Response Time,participant,session,date,expName,psychopyVersion,frameRate,
,,app,1,77,right,0.8974688053131104,sub3,001,2025-04-19_01h36.59.890,task1,2021.2.3,59.1941764152155,
,,app,1,77,right,0.15373611450195312,sub3,001,2025-04-19_01h36.59.890,task1,2021.2.3,59.1941764152155,
,,app,1,22,left,0.3428969383239746,sub3,001,2025-04-19_01h36.59.890,task1,2021.2.3,59.1941764152155,
,,app,1,77,right,0.10948038101196289,sub3,001,2025-04-19_01h36.59.890,task1,2021.2.3,59.1941764152155,
,,app,1,55,right,0.26868295669555664,sub3,001,2025-04-19_01h36.59.890,task1,2021.2.3,59.1941764152155,
,,app,1,0,left,0.1643662452697754,sub3,001,2025-04-19_01h36.59.890,task1,2021.2.3,59.1941764152155,
,,app,1,66,right,0.11344361305236816,sub3,001,2025-04-19_01h36.59.890,task1,2021.2.3,59.1941764152155,
,,app,1,77,right,0.16978216171264648,sub3,001,2025-04-19_01h36.59.890,task1,2021.2.3,59.1941764152155,
,,app,1,44,right,0.3504784107208252,sub3,001,2025-04-19_01h36.59.890,task1,2021.2.3,59.1941764152155,
,,app,1,33,left,0.363269567489624,sub3,001,2025-04-19_01h36.59.890,task1,2021.2.3,59.1941764152155,
,,app,1,0,left,0.1675114631652832,sub3,001,2025-04-19_01h36.59.890,task1,2021.2.3,59.1941764152155,
,,app,1,11,left,0.06862688064575195,sub3,001,2025-04-19_01h36.59.890,task1,2021.2.3,59.1941764152155,
,,app,1,0,left,0.181349515914917,sub3,001,2025-04-19_01h36.59.890,task1,2021.2.3,59.1941764152155,
,,app,1,11,left,0.20876789093017578,sub3,001,2025-04-19_01h36.59.890,task1,2021.2.3,59.1941764152155,
,,app,1,11,left,0.04313206672668457,sub3,001,2025-04-19_01h36.59.890,task1,2021.2.3,59.1941764152155,
,,app,1,77,right,0.2457108497619629,sub3,001,2025-04-19_01h36.59.890,task1,2021.2.3,59.1941764152155,
,,app,1,44,left,0.759772777557373,sub3,001,2025-04-19_01h36.59.890,task1,2021.2.3,59.1941764152155,
,,app,1,66,right,0.22885537147521973,sub3,001,2025-04-19_01h36.59.890,task1,2021.2.3,59.1941764152155,
,,app,1,55,right,0.7664070129394531,sub3,001,2025-04-19_01h36.59.890,task1,2021.2.3,59.1941764152155,
,,app,1,99,right,0.756749153137207,sub3,001,2025-04-19_01h36.59.890,task1,2021.2.3,59.1941764152155,
,,app,1,44,left,0.6090798377990723,sub3,001,2025-04-19_01h36.59.890,task1,2021.2.3,59.1941764152155,
,,app,1,0,left,0.2452375888824463,sub3,001,2025-04-19_01h36.59.890,task1,2021.2.3,59.1941764152155,
,,app,1,44,left,0.42270612716674805,sub3,001,2025-04-19_01h36.59.890,task1,2021.2.3,59.1941764152155,
,,app,1,33,left,0.07998275756835938,sub3,001,2025-04-19_01h36.59.890,task1,2021.2.3,59.1941764152155,
,,app,1,22,left,0.18403410911560059,sub3,001,2025-04-19_01h36.59.890,task1,2021.2.3,59.1941764152155,
,,app,1,55,right,0.16428327560424805,sub3,001,2025-04-19_01h36.59.890,task1,2021.2.3,59.1941764152155,
,,app,1,0,left,0.2730891704559326,sub3,001,2025-04-19_01h36.59.890,task1,2021.2.3,59.1941764152155,
,,app,1,22,left,0.07158637046813965,sub3,001,2025-04-19_01h36.59.890,task1,2021.2.3,59.1941764152155,
,,app,1,88,right,0.16283941268920898,sub3,001,2025-04-19_01h36.59.890,task1,2021.2.3,59.1941764152155,
,,app,1,55,right,0.39187192916870117,sub3,001,2025-04-19_01h36.59.890,task1,2021.2.3,59.1941764152155,
,,app,1,88,right,0.17859220504760742,sub3,001,2025-04-19_01h36.59.890,task1,2021.2.3,59.1941764152155,
,,app,1,66,right,0.4319179058074951,sub3,001,2025-04-19_01h36.59.890,task1,2021.2.3,59.1941764152155,
,,app,1,99,right,0.12082695960998535,sub3,001,2025-04-19_01h36.59.890,task1,2021.2.3,59.1941764152155,
,,app,1,55,right,0.5430588722229004,sub3,001,2025-04-19_01h36.59.890,task1,2021.2.3,59.1941764152155,
,,app,1,88,right,0.32519984245300293,sub3,001,2025-04-19_01h36.59.890,task1,2021.2.3,59.1941764152155,
,,app,1,22,left,0.29162001609802246,sub3,001,2025-04-19_01h36.59.890,task1,2021.2.3,59.1941764152155,
,,app,1,11,left,0.05928635597229004,sub3,001,2025-04-19_01h36.59.890,task1,2021.2.3,59.1941764152155,
,,app,1,99,right,0.23752760887145996,sub3,001,2025-04-19_01h36.59.890,task1,2021.2.3,59.1941764152155,
,,app,1,33,left,0.6466464996337891,sub3,001,2025-04-19_01h36.59.890,task1,2021.2.3,59.1941764152155,
,,app,1,66,right,0.6339986324310303,sub3,001,2025-04-19_01h36.59.890,task1,2021.2.3,59.1941764152155,
,,app,1,99,right,0.3479478359222412,sub3,001,2025-04-19_01h36.59.890,task1,2021.2.3,59.1941764152155,
,,app,1,66,right,0.1062617301940918,sub3,001,2025-04-19_01h36.59.890,task1,2021.2.3,59.1941764152155,
,,app,1,88,right,0.27955150604248047,sub3,001,2025-04-19_01h36.59.890,task1,2021.2.3,59.1941764152155,
,,app,1,22,left,0.17773032188415527,sub3,001,2025-04-19_01h36.59.890,task1,2021.2.3,59.1941764152155,
,,app,1,99,right,0.2545018196105957,sub3,001,2025-04-19_01h36.59.890,task1,2021.2.3,59.1941764152155,
,,app,1,33,left,0.3513936996459961,sub3,001,2025-04-19_01h36.59.890,task1,2021.2.3,59.1941764152155,
,,app,1,66,right,0.5250232219696045,sub3,001,2025-04-19_01h36.59.890,task1,2021.2.3,59.1941764152155,
,,app,1,66,right,0.16239619255065918,sub3,001,2025-04-19_01h36.59.890,task1,2021.2.3,59.1941764152155,
,,app,1,88,right,0.40702295303344727,sub3,001,2025-04-19_01h36.59.890,task1,2021.2.3,59.1941764152155,
,,app,1,33,left,0.4674489498138428,sub3,001,2025-04-19_01h36.59.890,task1,2021.2.3,59.1941764152155,
,,app,1,44,left,0.018954753875732422,sub3,001,2025-04-19_01h36.59.890,task1,2021.2.3,59.1941764152155,
,,app,1,33,left,0.00500798225402832,sub3,001,2025-04-19_01h36.59.890,task1,2021.2.3,59.1941764152155,
,,app,1,0,left,0.04870891571044922,sub3,001,2025-04-19_01h36.59.890,task1,2021.2.3,59.1941764152155,
,,app,1,44,left,0.22570037841796875,sub3,001,2025-04-19_01h36.59.890,task1,2021.2.3,59.1941764152155,
,,app,1,11,left,0.16367363929748535,sub3,001,2025-04-19_01h36.59.890,task1,2021.2.3,59.1941764152155,
,,app,1,11,left,0.025071382522583008,sub3,001,2025-04-19_01h36.59.890,task1,2021.2.3,59.1941764152155,
,,app,1,22,left,0.13892745971679688,sub3,001,2025-04-19_01h36.59.890,task1,2021.2.3,59.1941764152155,
,,app,1,22,left,0.06478261947631836,sub3,001,2025-04-19_01h36.59.890,task1,2021.2.3,59.1941764152155,
,,app,1,11,left,0.04288458824157715,sub3,001,2025-04-19_01h36.59.890,task1,2021.2.3,59.1941764152155,
,,app,1,0,left,0.09206771850585938,sub3,001,2025-04-19_01h36.59.890,task1,2021.2.3,59.1941764152155,
,,app,1,77,right,0.07605266571044922,sub3,001,2025-04-19_01h36.59.890,task1,2021.2.3,59.1941764152155,
,,app,1,99,right,1.9078845977783203,sub3,001,2025-04-19_01h36.59.890,task1,2021.2.3,59.1941764152155,
,,app,1,33,right,0.9479293823242188,sub3,001,2025-04-19_01h36.59.890,task1,2021.2.3,59.1941764152155,
,,app,1,44,right,0.9467880725860596,sub3,001,2025-04-19_01h36.59.890,task1,2021.2.3,59.1941764152155,
,,app,1,0,left,0.039667606353759766,sub3,001,2025-04-19_01h36.59.890,task1,2021.2.3,59.1941764152155,
,,app,1,77,right,0.21011018753051758,sub3,001,2025-04-19_01h36.59.890,task1,2021.2.3,59.1941764152155,
,,app,1,77,right,0.0448305606842041,sub3,001,2025-04-19_01h36.59.890,task1,2021.2.3,59.1941764152155,
,,app,1,66,right,1.5905311107635498,sub3,001,2025-04-19_01h36.59.890,task1,2021.2.3,59.1941764152155,
,,app,1,88,right,0.1950397491455078,sub3,001,2025-04-19_01h36.59.890,task1,2021.2.3,59.1941764152155,
,,app,1,88,right,0.047106266021728516,sub3,001,2025-04-19_01h36.59.890,task1,2021.2.3,59.1941764152155,
,,app,1,99,right,0.0893707275390625,sub3,001,2025-04-19_01h36.59.890,task1,2021.2.3,59.1941764152155,
,,app,1,99,right,1.2406885623931885,sub3,001,2025-04-19_01h36.59.890,task1,2021.2.3,59.1941764152155,
,,app,1,77,right,0.1395585536956787,sub3,001,2025-04-19_01h36.59.890,task1,2021.2.3,59.1941764152155,
,,app,1,44,left,0.26566338539123535,sub3,001,2025-04-19_01h36.59.890,task1,2021.2.3,59.1941764152155,
,,app,1,55,left,1.5546610355377197,sub3,001,2025-04-19_01h36.59.890,task1,2021.2.3,59.1941764152155,
,,app,1,11,left,0.2573075294494629,sub3,001,2025-04-19_01h36.59.890,task1,2021.2.3,59.1941764152155,
,,app,1,0,left,0.07389354705810547,sub3,001,2025-04-19_01h36.59.890,task1,2021.2.3,59.1941764152155,
,,app,1,22,left,0.21092987060546875,sub3,001,2025-04-19_01h36.59.890,task1,2021.2.3,59.1941764152155,
,,app,1,99,right,0.1019132137298584,sub3,001,2025-04-19_01h36.59.890,task1,2021.2.3,59.1941764152155,
,,app,1,55,right,0.4198267459869385,sub3,001,2025-04-19_01h36.59.890,task1,2021.2.3,59.1941764152155,
,,app,1,11,right,0.007015705108642578,sub3,001,2025-04-19_01h36.59.890,task1,2021.2.3,59.1941764152155,
,,app,1,66,left,3.826012134552002,sub3,001,2025-04-19_01h36.59.890,task1,2021.2.3,59.1941764152155,
,,app,1,33,left,0.2786698341369629,sub3,001,2025-04-19_01h36.59.890,task1,2021.2.3,59.1941764152155,
,,app,1,44,left,0.3113555908203125,sub3,001,2025-04-19_01h36.59.890,task1,2021.2.3,59.1941764152155,
,,app,1,11,left,0.08535957336425781,sub3,001,2025-04-19_01h36.59.890,task1,2021.2.3,59.1941764152155,
,,app,1,88,right,0.16540980339050293,sub3,001,2025-04-19_01h36.59.890,task1,2021.2.3,59.1941764152155,
,,app,1,44,left,0.8739511966705322,sub3,001,2025-04-19_01h36.59.890,task1,2021.2.3,59.1941764152155,
,,app,1,66,right,0.17200207710266113,sub3,001,2025-04-19_01h36.59.890,task1,2021.2.3,59.1941764152155,
,,app,1,99,right,0.18472576141357422,sub3,001,2025-04-19_01h36.59.890,task1,2021.2.3,59.1941764152155,
,,app,1,22,left,0.029146194458007812,sub3,001,2025-04-19_01h36.59.890,task1,2021.2.3,59.1941764152155,
,,app,1,88,right,0.3828577995300293,sub3,001,2025-04-19_01h36.59.890,task1,2021.2.3,59.1941764152155,
,,app,1,0,left,0.3057727813720703,sub3,001,2025-04-19_01h36.59.890,task1,2021.2.3,59.1941764152155,
,,app,1,88,right,0.6810412406921387,sub3,001,2025-04-19_01h36.59.890,task1,2021.2.3,59.1941764152155,
,,app,1,77,right,0.2983510494232178,sub3,001,2025-04-19_01h36.59.890,task1,2021.2.3,59.1941764152155,
,,app,1,55,right,0.10612845420837402,sub3,001,2025-04-19_01h36.59.890,task1,2021.2.3,59.1941764152155,
,,app,1,33,left,0.08045172691345215,sub3,001,2025-04-19_01h36.59.890,task1,2021.2.3,59.1941764152155,
,,app,1,55,left,0.977412223815918,sub3,001,2025-04-19_01h36.59.890,task1,2021.2.3,59.1941764152155,
,,app,1,55,right,0.8551754951477051,sub3,001,2025-04-19_01h36.59.890,task1,2021.2.3,59.1941764152155,
,,app,1,22,left,0.12796974182128906,sub3,001,2025-04-19_01h36.59.890,task1,2021.2.3,59.1941764152155,
,,app,1,33,left,0.07858896255493164,sub3,001,2025-04-19_01h36.59.890,task1,2021.2.3,59.1941764152155,
,,app,11,77,right,1.6669971942901611,sub3,001,2025-04-19_01h36.59.890,task1,2021.2.3,59.1941764152155,
,,app,11,66,right,0.2443549633026123,sub3,001,2025-04-19_01h36.59.890,task1,2021.2.3,59.1941764152155,
,,app,11,99,right,0.253887414932251,sub3,001,2025-04-19_01h36.59.890,task1,2021.2.3,59.1941764152155,
,,app,11,22,left,0.2627532482147217,sub3,001,2025-04-19_01h36.59.890,task1,2021.2.3,59.1941764152155,
,,app,11,33,left,0.5355868339538574,sub3,001,2025-04-19_01h36.59.890,task1,2021.2.3,59.1941764152155,
,,app,11,88,right,0.15754437446594238,sub3,001,2025-04-19_01h36.59.890,task1,2021.2.3,59.1941764152155,
,,app,11,0,left,0.24216628074645996,sub3,001,2025-04-19_01h36.59.890,task1,2021.2.3,59.1941764152155,
,,app,11,88,right,0.2600240707397461,sub3,001,2025-04-19_01h36.59.890,task1,2021.2.3,59.1941764152155,
,,app,11,11,left,0.15670228004455566,sub3,001,2025-04-19_01h36.59.890,task1,2021.2.3,59.1941764152155,
,,app,11,0,left,0.13939285278320312,sub3,001,2025-04-19_01h36.59.890,task1,2021.2.3,59.1941764152155,
,,app,11,99,right,0.15337061882019043,sub3,001,2025-04-19_01h36.59.890,task1,2021.2.3,59.1941764152155,
,,app,11,33,left,0.9503204822540283,sub3,001,2025-04-19_01h36.59.890,task1,2021.2.3,59.1941764152155,
,,app,11,11,left,0.5322778224945068,sub3,001,2025-04-19_01h36.59.890,task1,2021.2.3,59.1941764152155,
,,app,11,11,left,0.08283162117004395,sub3,001,2025-04-19_01h36.59.890,task1,2021.2.3,59.1941764152155,
,,app,11,0,left,0.09061956405639648,sub3,001,2025-04-19_01h36.59.890,task1,2021.2.3,59.1941764152155,
,,app,11,33,left,1.1464223861694336,sub3,001,2025-04-19_01h36.59.890,task1,2021.2.3,59.1941764152155,
,,app,11,77,right,0.297177791595459,sub3,001,2025-04-19_01h36.59.890,task1,2021.2.3,59.1941764152155,
,,app,11,22,left,0.40146827697753906,sub3,001,2025-04-19_01h36.59.890,task1,2021.2.3,59.1941764152155,
,,app,11,77,right,0.34785985946655273,sub3,001,2025-04-19_01h36.59.890,task1,2021.2.3,59.1941764152155,
,,app,11,55,right,0.20149517059326172,sub3,001,2025-04-19_01h36.59.890,task1,2021.2.3,59.1941764152155,
,,app,11,66,right,0.013294696807861328,sub3,001,2025-04-19_01h36.59.890,task1,2021.2.3,59.1941764152155,
,,app,11,99,right,0.16741275787353516,sub3,001,2025-04-19_01h36.59.890,task1,2021.2.3,59.1941764152155,
,,app,11,88,right,0.03625774383544922,sub3,001,2025-04-19_01h36.59.890,task1,2021.2.3,59.1941764152155,
,,app,11,33,left,0.5669846534729004,sub3,001,2025-04-19_01h36.59.890,task1,2021.2.3,59.1941764152155,
,,app,11,55,left,0.764167070388794,sub3,001,2025-04-19_01h36.59.890,task1,2021.2.3,59.1941764152155,
,,app,11,99,right,0.29768967628479004,sub3,001,2025-04-19_01h36.59.890,task1,2021.2.3,59.1941764152155,
,,app,11,0,left,0.30368494987487793,sub3,001,2025-04-19_01h36.59.890,task1,2021.2.3,59.1941764152155,
,,app,11,0,left,0.03116464614868164,sub3,001,2025-04-19_01h36.59.890,task1,2021.2.3,59.1941764152155,
,,app,11,11,left,0.017480134963989258,sub3,001,2025-04-19_01h36.59.890,task1,2021.2.3,59.1941764152155,
,,app,11,55,right,0.10851025581359863,sub3,001,2025-04-19_01h36.59.890,task1,2021.2.3,59.1941764152155,
,,app,11,77,right,0.18729496002197266,sub3,001,2025-04-19_01h36.59.890,task1,2021.2.3,59.1941764152155,
,,app,11,55,right,0.007071018218994141,sub3,001,2025-04-19_01h36.59.890,task1,2021.2.3,59.1941764152155,
,,app,11,44,right,0.22478365898132324,sub3,001,2025-04-19_01h36.59.890,task1,2021.2.3,59.1941764152155,
,,app,11,11,left,0.09859657287597656,sub3,001,2025-04-19_01h36.59.890,task1,2021.2.3,59.1941764152155,
,,app,11,22,left,0.07575488090515137,sub3,001,2025-04-19_01h36.59.890,task1,2021.2.3,59.1941764152155,
,,app,11,0,left,0.08341169357299805,sub3,001,2025-04-19_01h36.59.890,task1,2021.2.3,59.1941764152155,
,,app,11,11,left,0.011053085327148438,sub3,001,2025-04-19_01h36.59.890,task1,2021.2.3,59.1941764152155,
,,app,11,88,right,1.8868598937988281,sub3,001,2025-04-19_01h36.59.890,task1,2021.2.3,59.1941764152155,
,,app,11,77,right,0.21547293663024902,sub3,001,2025-04-19_01h36.59.890,task1,2021.2.3,59.1941764152155,
,,app,11,88,right,0.0740201473236084,sub3,001,2025-04-19_01h36.59.890,task1,2021.2.3,59.1941764152155,
,,app,11,77,right,0.10435652732849121,sub3,001,2025-04-19_01h36.59.890,task1,2021.2.3,59.1941764152155,
,,app,11,33,left,0.18494439125061035,sub3,001,2025-04-19_01h36.59.890,task1,2021.2.3,59.1941764152155,
,,app,11,88,right,0.2604806423187256,sub3,001,2025-04-19_01h36.59.890,task1,2021.2.3,59.1941764152155,
,,app,11,33,left,0.5504150390625,sub3,001,2025-04-19_01h36.59.890,task1,2021.2.3,59.1941764152155,
,,app,11,55,right,1.3467400074005127,sub3,001,2025-04-19_01h36.59.890,task1,2021.2.3,59.1941764152155,
,,app,11,88,right,0.1009378433227539,sub3,001,2025-04-19_01h36.59.890,task1,2021.2.3,59.1941764152155,
,,app,11,0,left,0.2739427089691162,sub3,001,2025-04-19_01h36.59.890,task1,2021.2.3,59.1941764152155,
,,app,11,66,right,0.6273519992828369,sub3,001,2025-04-19_01h36.59.890,task1,2021.2.3,59.1941764152155,
,,app,11,66,right,0.05427837371826172,sub3,001,2025-04-19_01h36.59.890,task1,2021.2.3,59.1941764152155,
,,app,11,33,left,0.461911678314209,sub3,001,2025-04-19_01h36.59.890,task1,2021.2.3,59.1941764152155,
,,app,11,99,right,0.24679112434387207,sub3,001,2025-04-19_01h36.59.890,task1,2021.2.3,59.1941764152155,
,,app,11,44,right,0.5606391429901123,sub3,001,2025-04-19_01h36.59.890,task1,2021.2.3,59.1941764152155,
,,app,11,11,left,0.23889946937561035,sub3,001,2025-04-19_01h36.59.890,task1,2021.2.3,59.1941764152155,
,,app,11,22,left,0.13617897033691406,sub3,001,2025-04-19_01h36.59.890,task1,2021.2.3,59.1941764152155,
,,app,11,22,left,0.04588198661804199,sub3,001,2025-04-19_01h36.59.890,task1,2021.2.3,59.1941764152155,
,,app,11,55,right,0.5842955112457275,sub3,001,2025-04-19_01h36.59.890,task1,2021.2.3,59.1941764152155,
,,app,11,77,right,0.1960124969482422,sub3,001,2025-04-19_01h36.59.890,task1,2021.2.3,59.1941764152155,
,,app,11,99,right,0.35239267349243164,sub3,001,2025-04-19_01h36.59.890,task1,2021.2.3,59.1941764152155,
,,app,11,44,right,1.0206706523895264,sub3,001,2025-04-19_01h36.59.890,task1,2021.2.3,59.1941764152155,
,,app,11,44,left,0.8671987056732178,sub3,001,2025-04-19_01h36.59.890,task1,2021.2.3,59.1941764152155,
,,app,11,66,right,0.46326684951782227,sub3,001,2025-04-19_01h36.59.890,task1,2021.2.3,59.1941764152155,
,,app,11,44,right,0.6577026844024658,sub3,001,2025-04-19_01h36.59.890,task1,2021.2.3,59.1941764152155,
,,app,11,77,right,0.19568562507629395,sub3,001,2025-04-19_01h36.59.890,task1,2021.2.3,59.1941764152155,
,,app,11,77,right,0.06301331520080566,sub3,001,2025-04-19_01h36.59.890,task1,2021.2.3,59.1941764152155,
,,app,11,66,right,0.06447720527648926,sub3,001,2025-04-19_01h36.59.890,task1,2021.2.3,59.1941764152155,
,,app,11,88,right,1.1922988891601562,sub3,001,2025-04-19_01h36.59.890,task1,2021.2.3,59.1941764152155,
,,app,11,11,left,0.18142318725585938,sub3,001,2025-04-19_01h36.59.890,task1,2021.2.3,59.1941764152155,
,,app,11,22,left,0.0742490291595459,sub3,001,2025-04-19_01h36.59.890,task1,2021.2.3,59.1941764152155,
,,app,11,55,left,0.6831498146057129,sub3,001,2025-04-19_01h36.59.890,task1,2021.2.3,59.1941764152155,
,,app,11,44,right,1.5943660736083984,sub3,001,2025-04-19_01h36.59.890,task1,2021.2.3,59.1941764152155,
,,app,11,22,left,0.2877657413482666,sub3,001,2025-04-19_01h36.59.890,task1,2021.2.3,59.1941764152155,
,,app,11,99,right,0.32572317123413086,sub3,001,2025-04-19_01h36.59.890,task1,2021.2.3,59.1941764152155,
,,app,11,0,left,0.23729538917541504,sub3,001,2025-04-19_01h36.59.890,task1,2021.2.3,59.1941764152155,
,,app,11,55,left,0.7197630405426025,sub3,001,2025-04-19_01h36.59.890,task1,2021.2.3,59.1941764152155,
,,app,11,11,left,0.1656179428100586,sub3,001,2025-04-19_01h36.59.890,task1,2021.2.3,59.1941764152155,
,,app,11,11,left,0.051021575927734375,sub3,001,2025-04-19_01h36.59.890,task1,2021.2.3,59.1941764152155,
,,app,11,99,right,0.7312159538269043,sub3,001,2025-04-19_01h36.59.890,task1,2021.2.3,59.1941764152155,
,,app,11,99,right,0.0017414093017578125,sub3,001,2025-04-19_01h36.59.890,task1,2021.2.3,59.1941764152155,
,,app,11,0,left,0.20517277717590332,sub3,001,2025-04-19_01h36.59.890,task1,2021.2.3,59.1941764152155,
,,app,11,44,right,0.23146295547485352,sub3,001,2025-04-19_01h36.59.890,task1,2021.2.3,59.1941764152155,
,,app,11,0,left,0.23396682739257812,sub3,001,2025-04-19_01h36.59.890,task1,2021.2.3,59.1941764152155,
,,app,11,55,left,1.0113654136657715,sub3,001,2025-04-19_01h36.59.890,task1,2021.2.3,59.1941764152155,
,,app,11,33,right,1.1116456985473633,sub3,001,2025-04-19_01h36.59.890,task1,2021.2.3,59.1941764152155,
,,app,11,88,right,0.1915295124053955,sub3,001,2025-04-19_01h36.59.890,task1,2021.2.3,59.1941764152155,
,,app,11,88,right,0.13151121139526367,sub3,001,2025-04-19_01h36.59.890,task1,2021.2.3,59.1941764152155,
,,app,11,66,right,0.28876399993896484,sub3,001,2025-04-19_01h36.59.890,task1,2021.2.3,59.1941764152155,
,,app,11,66,right,0.15315794944763184,sub3,001,2025-04-19_01h36.59.890,task1,2021.2.3,59.1941764152155,
,,app,11,33,right,0.1666579246520996,sub3,001,2025-04-19_01h36.59.890,task1,2021.2.3,59.1941764152155,
,,app,11,22,left,0.07473540306091309,sub3,001,2025-04-19_01h36.59.890,task1,2021.2.3,59.1941764152155,
,,app,11,44,left,1.7301442623138428,sub3,001,2025-04-19_01h36.59.890,task1,2021.2.3,59.1941764152155,
,,app,11,44,left,0.601762056350708,sub3,001,2025-04-19_01h36.59.890,task1,2021.2.3,59.1941764152155,
,,app,11,33,left,0.4453291893005371,sub3,001,2025-04-19_01h36.59.890,task1,2021.2.3,59.1941764152155,
,,app,11,99,right,0.6791472434997559,sub3,001,2025-04-19_01h36.59.890,task1,2021.2.3,59.1941764152155,
,,app,11,44,left,0.5592362880706787,sub3,001,2025-04-19_01h36.59.890,task1,2021.2.3,59.1941764152155,
,,app,11,77,right,0.25351738929748535,sub3,001,2025-04-19_01h36.59.890,task1,2021.2.3,59.1941764152155,
,,app,11,66,right,0.18152260780334473,sub3,001,2025-04-19_01h36.59.890,task1,2021.2.3,59.1941764152155,
,,app,11,66,right,0.3312206268310547,sub3,001,2025-04-19_01h36.59.890,task1,2021.2.3,59.1941764152155,
,,app,11,22,left,0.2251749038696289,sub3,001,2025-04-19_01h36.59.890,task1,2021.2.3,59.1941764152155,
,,app,11,55,right,1.3878443241119385,sub3,001,2025-04-19_01h36.59.890,task1,2021.2.3,59.1941764152155,
,,app,11,22,left,0.08884048461914062,sub3,001,2025-04-19_01h36.59.890,task1,2021.2.3,59.1941764152155,
,,sha,1,44,left,1.2438082695007324,sub3,001,2025-04-19_01h36.59.890,task1,2021.2.3,59.1941764152155,
,,sha,1,0,left,0.49422740936279297,sub3,001,2025-04-19_01h36.59.890,task1,2021.2.3,59.1941764152155,
,,sha,1,0,left,0.11859488487243652,sub3,001,2025-04-19_01h36.59.890,task1,2021.2.3,59.1941764152155,
,,sha,1,11,left,0.07662010192871094,sub3,001,2025-04-19_01h36.59.890,task1,2021.2.3,59.1941764152155,
,,sha,1,88,right,0.17337465286254883,sub3,001,2025-04-19_01h36.59.890,task1,2021.2.3,59.1941764152155,
,,sha,1,77,right,0.12165689468383789,sub3,001,2025-04-19_01h36.59.890,task1,2021.2.3,59.1941764152155,
,,sha,1,0,left,0.14441514015197754,sub3,001,2025-04-19_01h36.59.890,task1,2021.2.3,59.1941764152155,
,,sha,1,44,left,0.7251229286193848,sub3,001,2025-04-19_01h36.59.890,task1,2021.2.3,59.1941764152155,
,,sha,1,11,left,0.2284221649169922,sub3,001,2025-04-19_01h36.59.890,task1,2021.2.3,59.1941764152155,
,,sha,1,66,right,0.33341002464294434,sub3,001,2025-04-19_01h36.59.890,task1,2021.2.3,59.1941764152155,
,,sha,1,99,right,0.3238258361816406,sub3,001,2025-04-19_01h36.59.890,task1,2021.2.3,59.1941764152155,
,,sha,1,66,right,0.7710864543914795,sub3,001,2025-04-19_01h36.59.890,task1,2021.2.3,59.1941764152155,
,,sha,1,88,right,0.2480168342590332,sub3,001,2025-04-19_01h36.59.890,task1,2021.2.3,59.1941764152155,
,,sha,1,11,left,0.2334425449371338,sub3,001,2025-04-19_01h36.59.890,task1,2021.2.3,59.1941764152155,
,,sha,1,66,right,2.394629716873169,sub3,001,2025-04-19_01h36.59.890,task1,2021.2.3,59.1941764152155,
,,sha,1,11,left,0.2642686367034912,sub3,001,2025-04-19_01h36.59.890,task1,2021.2.3,59.1941764152155,
,,sha,1,0,left,0.009991168975830078,sub3,001,2025-04-19_01h36.59.890,task1,2021.2.3,59.1941764152155,
,,sha,1,33,left,0.05084562301635742,sub3,001,2025-04-19_01h36.59.890,task1,2021.2.3,59.1941764152155,
,,sha,1,33,left,0.1080470085144043,sub3,001,2025-04-19_01h36.59.890,task1,2021.2.3,59.1941764152155,
,,sha,1,44,left,0.24376606941223145,sub3,001,2025-04-19_01h36.59.890,task1,2021.2.3,59.1941764152155,
,,sha,1,55,left,0.21466541290283203,sub3,001,2025-04-19_01h36.59.890,task1,2021.2.3,59.1941764152155,
,,sha,1,66,left,0.6335976123809814,sub3,001,2025-04-19_01h36.59.890,task1,2021.2.3,59.1941764152155,
,,sha,1,11,left,0.6112070083618164,sub3,001,2025-04-19_01h36.59.890,task1,2021.2.3,59.1941764152155,
,,sha,1,11,left,0.06226706504821777,sub3,001,2025-04-19_01h36.59.890,task1,2021.2.3,59.1941764152155,
,,sha,1,88,right,0.32750725746154785,sub3,001,2025-04-19_01h36.59.890,task1,2021.2.3,59.1941764152155,
,,sha,1,22,left,0.39732885360717773,sub3,001,2025-04-19_01h36.59.890,task1,2021.2.3,59.1941764152155,
,,sha,1,66,right,0.5941424369812012,sub3,001,2025-04-19_01h36.59.890,task1,2021.2.3,59.1941764152155,
,,sha,1,22,left,0.3589775562286377,sub3,001,2025-04-19_01h36.59.890,task1,2021.2.3,59.1941764152155,
,,sha,1,44,left,0.7159943580627441,sub3,001,2025-04-19_01h36.59.890,task1,2021.2.3,59.1941764152155,
,,sha,1,11,left,1.091233491897583,sub3,001,2025-04-19_01h36.59.890,task1,2021.2.3,59.1941764152155,
,,sha,1,22,left,0.16239166259765625,sub3,001,2025-04-19_01h36.59.890,task1,2021.2.3,59.1941764152155,
,,sha,1,33,left,0.0568389892578125,sub3,001,2025-04-19_01h36.59.890,task1,2021.2.3,59.1941764152155,
,,sha,1,88,right,0.18624186515808105,sub3,001,2025-04-19_01h36.59.890,task1,2021.2.3,59.1941764152155,
,,sha,1,55,right,0.9484262466430664,sub3,001,2025-04-19_01h36.59.890,task1,2021.2.3,59.1941764152155,
,,sha,1,11,left,0.21904516220092773,sub3,001,2025-04-19_01h36.59.890,task1,2021.2.3,59.1941764152155,
,,sha,1,0,left,0.25324058532714844,sub3,001,2025-04-19_01h36.59.890,task1,2021.2.3,59.1941764152155,
,,sha,1,11,left,0.14168071746826172,sub3,001,2025-04-19_01h36.59.890,task1,2021.2.3,59.1941764152155,
,,sha,1,77,right,0.48435139656066895,sub3,001,2025-04-19_01h36.59.890,task1,2021.2.3,59.1941764152155,
,,sha,1,33,left,0.6366615295410156,sub3,001,2025-04-19_01h36.59.890,task1,2021.2.3,59.1941764152155,
,,sha,1,33,left,0.07062077522277832,sub3,001,2025-04-19_01h36.59.890,task1,2021.2.3,59.1941764152155,
,,sha,1,55,left,0.8530519008636475,sub3,001,2025-04-19_01h36.59.890,task1,2021.2.3,59.1941764152155,
,,sha,1,22,left,0.11919856071472168,sub3,001,2025-04-19_01h36.59.890,task1,2021.2.3,59.1941764152155,
,,sha,1,22,left,0.05412888526916504,sub3,001,2025-04-19_01h36.59.890,task1,2021.2.3,59.1941764152155,
,,sha,1,55,left,0.5433242321014404,sub3,001,2025-04-19_01h36.59.890,task1,2021.2.3,59.1941764152155,
,,sha,1,55,left,0.5963330268859863,sub3,001,2025-04-19_01h36.59.890,task1,2021.2.3,59.1941764152155,
,,sha,1,66,left,0.6093771457672119,sub3,001,2025-04-19_01h36.59.890,task1,2021.2.3,59.1941764152155,
,,sha,1,99,right,0.1638481616973877,sub3,001,2025-04-19_01h36.59.890,task1,2021.2.3,59.1941764152155,
,,sha,1,66,right,0.2751002311706543,sub3,001,2025-04-19_01h36.59.890,task1,2021.2.3,59.1941764152155,
,,sha,1,33,left,0.38721203804016113,sub3,001,2025-04-19_01h36.59.890,task1,2021.2.3,59.1941764152155,
,,sha,1,99,right,0.33451223373413086,sub3,001,2025-04-19_01h36.59.890,task1,2021.2.3,59.1941764152155,
,,sha,1,0,left,0.3563120365142822,sub3,001,2025-04-19_01h36.59.890,task1,2021.2.3,59.1941764152155,
,,sha,1,99,right,0.08922767639160156,sub3,001,2025-04-19_01h36.59.890,task1,2021.2.3,59.1941764152155,
,,sha,1,22,left,0.46418213844299316,sub3,001,2025-04-19_01h36.59.890,task1,2021.2.3,59.1941764152155,
,,sha,1,99,right,0.09117889404296875,sub3,001,2025-04-19_01h36.59.890,task1,2021.2.3,59.1941764152155,
,,sha,1,77,right,0.2344036102294922,sub3,001,2025-04-19_01h36.59.890,task1,2021.2.3,59.1941764152155,
,,sha,1,55,right,0.2687971591949463,sub3,001,2025-04-19_01h36.59.890,task1,2021.2.3,59.1941764152155,
,,sha,1,66,right,0.36332154273986816,sub3,001,2025-04-19_01h36.59.890,task1,2021.2.3,59.1941764152155,
,,sha,1,22,left,0.3626415729522705,sub3,001,2025-04-19_01h36.59.890,task1,2021.2.3,59.1941764152155,
,,sha,1,55,left,0.3594074249267578,sub3,001,2025-04-19_01h36.59.890,task1,2021.2.3,59.1941764152155,
,,sha,1,44,left,0.1814873218536377,sub3,001,2025-04-19_01h36.59.890,task1,2021.2.3,59.1941764152155,
,,sha,1,77,right,0.36942553520202637,sub3,001,2025-04-19_01h36.59.890,task1,2021.2.3,59.1941764152155,
,,sha,1,88,right,0.1655254364013672,sub3,001,2025-04-19_01h36.59.890,task1,2021.2.3,59.1941764152155,
,,sha,1,55,right,0.12305045127868652,sub3,001,2025-04-19_01h36.59.890,task1,2021.2.3,59.1941764152155,
,,sha,1,22,left,0.16219758987426758,sub3,001,2025-04-19_01h36.59.890,task1,2021.2.3,59.1941764152155,
,,sha,1,77,right,0.37444353103637695,sub3,001,2025-04-19_01h36.59.890,task1,2021.2.3,59.1941764152155,
,,sha,1,99,right,0.323131799697876,sub3,001,2025-04-19_01h36.59.890,task1,2021.2.3,59.1941764152155,
,,sha,1,11,left,0.609511137008667,sub3,001,2025-04-19_01h36.59.890,task1,2021.2.3,59.1941764152155,
,,sha,1,22,left,0.3248124122619629,sub3,001,2025-04-19_01h36.59.890,task1,2021.2.3,59.1941764152155,
,,sha,1,0,left,0.13190150260925293,sub3,001,2025-04-19_01h36.59.890,task1,2021.2.3,59.1941764152155,
,,sha,1,88,right,0.21705842018127441,sub3,001,2025-04-19_01h36.59.890,task1,2021.2.3,59.1941764152155,
,,sha,1,99,right,0.004364013671875,sub3,001,2025-04-19_01h36.59.890,task1,2021.2.3,59.1941764152155,
,,sha,1,66,right,0.6209039688110352,sub3,001,2025-04-19_01h36.59.890,task1,2021.2.3,59.1941764152155,
,,sha,1,0,left,0.11262965202331543,sub3,001,2025-04-19_01h36.59.890,task1,2021.2.3,59.1941764152155,
,,sha,1,66,left,0.0557713508605957,sub3,001,2025-04-19_01h36.59.890,task1,2021.2.3,59.1941764152155,
,,sha,1,88,right,0.3612499237060547,sub3,001,2025-04-19_01h36.59.890,task1,2021.2.3,59.1941764152155,
,,sha,1,77,right,0.28703737258911133,sub3,001,2025-04-19_01h36.59.890,task1,2021.2.3,59.1941764152155,
,,sha,1,88,right,0.047144412994384766,sub3,001,2025-04-19_01h36.59.890,task1,2021.2.3,59.1941764152155,
,,sha,1,44,left,0.27233242988586426,sub3,001,2025-04-19_01h36.59.890,task1,2021.2.3,59.1941764152155,
,,sha,1,33,left,0.2733006477355957,sub3,001,2025-04-19_01h36.59.890,task1,2021.2.3,59.1941764152155,
,,sha,1,88,right,0.19440865516662598,sub3,001,2025-04-19_01h36.59.890,task1,2021.2.3,59.1941764152155,
,,sha,1,22,left,0.24558687210083008,sub3,001,2025-04-19_01h36.59.890,task1,2021.2.3,59.1941764152155,
,,sha,1,99,right,0.13495492935180664,sub3,001,2025-04-19_01h36.59.890,task1,2021.2.3,59.1941764152155,
,,sha,1,44,left,0.24614238739013672,sub3,001,2025-04-19_01h36.59.890,task1,2021.2.3,59.1941764152155,
,,sha,1,55,left,0.6306111812591553,sub3,001,2025-04-19_01h36.59.890,task1,2021.2.3,59.1941764152155,
,,sha,1,44,left,0.4980757236480713,sub3,001,2025-04-19_01h36.59.890,task1,2021.2.3,59.1941764152155,
,,sha,1,44,left,0.21784734725952148,sub3,001,2025-04-19_01h36.59.890,task1,2021.2.3,59.1941764152155,
,,sha,1,77,right,0.331742525100708,sub3,001,2025-04-19_01h36.59.890,task1,2021.2.3,59.1941764152155,
,,sha,1,99,right,0.08281683921813965,sub3,001,2025-04-19_01h36.59.890,task1,2021.2.3,59.1941764152155,
,,sha,1,33,left,0.5221946239471436,sub3,001,2025-04-19_01h36.59.890,task1,2021.2.3,59.1941764152155,
,,sha,1,77,right,0.3512120246887207,sub3,001,2025-04-19_01h36.59.890,task1,2021.2.3,59.1941764152155,
,,sha,1,88,right,0.014297723770141602,sub3,001,2025-04-19_01h36.59.890,task1,2021.2.3,59.1941764152155,
,,sha,1,77,right,0.22549819946289062,sub3,001,2025-04-19_01h36.59.890,task1,2021.2.3,59.1941764152155,
,,sha,1,99,right,1.8445775508880615,sub3,001,2025-04-19_01h36.59.890,task1,2021.2.3,59.1941764152155,
,,sha,1,55,left,0.5342776775360107,sub3,001,2025-04-19_01h36.59.890,task1,2021.2.3,59.1941764152155,
,,sha,1,0,left,0.20529723167419434,sub3,001,2025-04-19_01h36.59.890,task1,2021.2.3,59.1941764152155,
,,sha,1,77,right,0.2653615474700928,sub3,001,2025-04-19_01h36.59.890,task1,2021.2.3,59.1941764152155,
,,sha,1,0,left,0.17705559730529785,sub3,001,2025-04-19_01h36.59.890,task1,2021.2.3,59.1941764152155,
,,sha,1,33,left,0.3249673843383789,sub3,001,2025-04-19_01h36.59.890,task1,2021.2.3,59.1941764152155,
,,sha,1,33,left,0.0705728530883789,sub3,001,2025-04-19_01h36.59.890,task1,2021.2.3,59.1941764152155,
,,sha,1,44,left,0.10871052742004395,sub3,001,2025-04-19_01h36.59.890,task1,2021.2.3,59.1941764152155,
,,sha,11,22,left,0.7766139507293701,sub3,001,2025-04-19_01h36.59.890,task1,2021.2.3,59.1941764152155,
,,sha,11,99,right,0.29317450523376465,sub3,001,2025-04-19_01h36.59.890,task1,2021.2.3,59.1941764152155,
,,sha,11,99,right,0.17319965362548828,sub3,001,2025-04-19_01h36.59.890,task1,2021.2.3,59.1941764152155,
,,sha,11,77,right,0.06482768058776855,sub3,001,2025-04-19_01h36.59.890,task1,2021.2.3,59.1941764152155,
,,sha,11,66,right,0.4899311065673828,sub3,001,2025-04-19_01h36.59.890,task1,2021.2.3,59.1941764152155,
,,sha,11,55,right,0.2887406349182129,sub3,001,2025-04-19_01h36.59.890,task1,2021.2.3,59.1941764152155,
,,sha,11,11,left,0.07404065132141113,sub3,001,2025-04-19_01h36.59.890,task1,2021.2.3,59.1941764152155,
,,sha,11,22,left,0.03479170799255371,sub3,001,2025-04-19_01h36.59.890,task1,2021.2.3,59.1941764152155,
,,sha,11,0,left,1.075465202331543,sub3,001,2025-04-19_01h36.59.890,task1,2021.2.3,59.1941764152155,
,,sha,11,77,left,4.549033164978027,sub3,001,2025-04-19_01h36.59.890,task1,2021.2.3,59.1941764152155,
,,sha,11,33,left,0.5096440315246582,sub3,001,2025-04-19_01h36.59.890,task1,2021.2.3,59.1941764152155,
,,sha,11,55,left,0.5873289108276367,sub3,001,2025-04-19_01h36.59.890,task1,2021.2.3,59.1941764152155,
,,sha,11,66,right,0.5761106014251709,sub3,001,2025-04-19_01h36.59.890,task1,2021.2.3,59.1941764152155,
,,sha,11,11,left,0.19029784202575684,sub3,001,2025-04-19_01h36.59.890,task1,2021.2.3,59.1941764152155,
,,sha,11,99,right,0.2420501708984375,sub3,001,2025-04-19_01h36.59.890,task1,2021.2.3,59.1941764152155,
,,sha,11,44,left,0.5537619590759277,sub3,001,2025-04-19_01h36.59.890,task1,2021.2.3,59.1941764152155,
,,sha,11,44,left,0.5038142204284668,sub3,001,2025-04-19_01h36.59.890,task1,2021.2.3,59.1941764152155,
,,sha,11,77,right,0.27170324325561523,sub3,001,2025-04-19_01h36.59.890,task1,2021.2.3,59.1941764152155,
,,sha,11,99,right,1.1287262439727783,sub3,001,2025-04-19_01h36.59.890,task1,2021.2.3,59.1941764152155,
,,sha,11,11,left,0.3277163505554199,sub3,001,2025-04-19_01h36.59.890,task1,2021.2.3,59.1941764152155,
,,sha,11,11,left,0.158189058303833,sub3,001,2025-04-19_01h36.59.890,task1,2021.2.3,59.1941764152155,
,,sha,11,55,left,0.6663727760314941,sub3,001,2025-04-19_01h36.59.890,task1,2021.2.3,59.1941764152155,
,,sha,11,0,left,0.3795464038848877,sub3,001,2025-04-19_01h36.59.890,task1,2021.2.3,59.1941764152155,
,,sha,11,55,left,0.7280426025390625,sub3,001,2025-04-19_01h36.59.890,task1,2021.2.3,59.1941764152155,
,,sha,11,11,left,0.20554494857788086,sub3,001,2025-04-19_01h36.59.890,task1,2021.2.3,59.1941764152155,
,,sha,11,88,right,0.16124343872070312,sub3,001,2025-04-19_01h36.59.890,task1,2021.2.3,59.1941764152155,
,,sha,11,66,right,0.24469423294067383,sub3,001,2025-04-19_01h36.59.890,task1,2021.2.3,59.1941764152155,
,,sha,11,77,right,0.032657623291015625,sub3,001,2025-04-19_01h36.59.890,task1,2021.2.3,59.1941764152155,
,,sha,11,33,left,0.8983051776885986,sub3,001,2025-04-19_01h36.59.890,task1,2021.2.3,59.1941764152155,
,,sha,11,88,right,0.09764623641967773,sub3,001,2025-04-19_01h36.59.890,task1,2021.2.3,59.1941764152155,
,,sha,11,88,right,0.09797978401184082,sub3,001,2025-04-19_01h36.59.890,task1,2021.2.3,59.1941764152155,
,,sha,11,99,right,0.017695903778076172,sub3,001,2025-04-19_01h36.59.890,task1,2021.2.3,59.1941764152155,
,,sha,11,66,right,0.18740129470825195,sub3,001,2025-04-19_01h36.59.890,task1,2021.2.3,59.1941764152155,
,,sha,11,88,right,0.022519588470458984,sub3,001,2025-04-19_01h36.59.890,task1,2021.2.3,59.1941764152155,
,,sha,11,33,left,0.8101091384887695,sub3,001,2025-04-19_01h36.59.890,task1,2021.2.3,59.1941764152155,
,,sha,11,0,left,0.24480628967285156,sub3,001,2025-04-19_01h36.59.890,task1,2021.2.3,59.1941764152155,
,,sha,11,44,left,0.11034011840820312,sub3,001,2025-04-19_01h36.59.890,task1,2021.2.3,59.1941764152155,
,,sha,11,77,right,0.2270350456237793,sub3,001,2025-04-19_01h36.59.890,task1,2021.2.3,59.1941764152155,
,,sha,11,33,left,0.3269784450531006,sub3,001,2025-04-19_01h36.59.890,task1,2021.2.3,59.1941764152155,
,,sha,11,33,left,0.24605941772460938,sub3,001,2025-04-19_01h36.59.890,task1,2021.2.3,59.1941764152155,
,,sha,11,0,left,0.16373777389526367,sub3,001,2025-04-19_01h36.59.890,task1,2021.2.3,59.1941764152155,
,,sha,11,77,right,0.5282702445983887,sub3,001,2025-04-19_01h36.59.890,task1,2021.2.3,59.1941764152155,
,,sha,11,33,left,0.4719991683959961,sub3,001,2025-04-19_01h36.59.890,task1,2021.2.3,59.1941764152155,
,,sha,11,99,right,0.2804844379425049,sub3,001,2025-04-19_01h36.59.890,task1,2021.2.3,59.1941764152155,
,,sha,11,22,left,0.31276488304138184,sub3,001,2025-04-19_01h36.59.890,task1,2021.2.3,59.1941764152155,
,,sha,11,33,left,0.28854942321777344,sub3,001,2025-04-19_01h36.59.890,task1,2021.2.3,59.1941764152155,
,,sha,11,11,left,0.09594845771789551,sub3,001,2025-04-19_01h36.59.890,task1,2021.2.3,59.1941764152155,
,,sha,11,0,left,0.26398634910583496,sub3,001,2025-04-19_01h36.59.890,task1,2021.2.3,59.1941764152155,
,,sha,11,55,right,0.648939847946167,sub3,001,2025-04-19_01h36.59.890,task1,2021.2.3,59.1941764152155,
,,sha,11,0,left,0.17792725563049316,sub3,001,2025-04-19_01h36.59.890,task1,2021.2.3,59.1941764152155,
,,sha,11,66,right,0.4225778579711914,sub3,001,2025-04-19_01h36.59.890,task1,2021.2.3,59.1941764152155,
,,sha,11,88,right,0.0978999137878418,sub3,001,2025-04-19_01h36.59.890,task1,2021.2.3,59.1941764152155,
,,sha,11,88,right,0.01718449592590332,sub3,001,2025-04-19_01h36.59.890,task1,2021.2.3,59.1941764152155,
,,sha,11,33,left,0.28203797340393066,sub3,001,2025-04-19_01h36.59.890,task1,2021.2.3,59.1941764152155,
,,sha,11,11,left,0.010445356369018555,sub3,001,2025-04-19_01h36.59.890,task1,2021.2.3,59.1941764152155,
,,sha,11,55,left,1.029296636581421,sub3,001,2025-04-19_01h36.59.890,task1,2021.2.3,59.1941764152155,
,,sha,11,22,left,0.11915206909179688,sub3,001,2025-04-19_01h36.59.890,task1,2021.2.3,59.1941764152155,
,,sha,11,77,right,0.23081636428833008,sub3,001,2025-04-19_01h36.59.890,task1,2021.2.3,59.1941764152155,
,,sha,11,33,left,0.1849048137664795,sub3,001,2025-04-19_01h36.59.890,task1,2021.2.3,59.1941764152155,
,,sha,11,22,left,0.0844564437866211,sub3,001,2025-04-19_01h36.59.890,task1,2021.2.3,59.1941764152155,
,,sha,11,66,left,0.6210310459136963,sub3,001,2025-04-19_01h36.59.890,task1,2021.2.3,59.1941764152155,
,,sha,11,77,left,0.1430952548980713,sub3,001,2025-04-19_01h36.59.890,task1,2021.2.3,59.1941764152155,
,,sha,11,66,right,2.035093069076538,sub3,001,2025-04-19_01h36.59.890,task1,2021.2.3,59.1941764152155,
,,sha,11,22,left,0.19174647331237793,sub3,001,2025-04-19_01h36.59.890,task1,2021.2.3,59.1941764152155,
,,sha,11,44,left,0.1711103916168213,sub3,001,2025-04-19_01h36.59.890,task1,2021.2.3,59.1941764152155,
,,sha,11,55,left,0.05533099174499512,sub3,001,2025-04-19_01h36.59.890,task1,2021.2.3,59.1941764152155,
,,sha,11,99,right,0.0326080322265625,sub3,001,2025-04-19_01h36.59.890,task1,2021.2.3,59.1941764152155,
,,sha,11,99,right,0.0021669864654541016,sub3,001,2025-04-19_01h36.59.890,task1,2021.2.3,59.1941764152155,
,,sha,11,55,right,1.4131791591644287,sub3,001,2025-04-19_01h36.59.890,task1,2021.2.3,59.1941764152155,
,,sha,11,11,left,0.1620159149169922,sub3,001,2025-04-19_01h36.59.890,task1,2021.2.3,59.1941764152155,
,,sha,11,88,right,0.27877354621887207,sub3,001,2025-04-19_01h36.59.890,task1,2021.2.3,59.1941764152155,
,,sha,11,33,left,0.3668699264526367,sub3,001,2025-04-19_01h36.59.890,task1,2021.2.3,59.1941764152155,
,,sha,11,44,left,0.2271404266357422,sub3,001,2025-04-19_01h36.59.890,task1,2021.2.3,59.1941764152155,
,,sha,11,88,right,0.22887206077575684,sub3,001,2025-04-19_01h36.59.890,task1,2021.2.3,59.1941764152155,
,,sha,11,55,left,0.27246642112731934,sub3,001,2025-04-19_01h36.59.890,task1,2021.2.3,59.1941764152155,
,,sha,11,66,right,0.31360912322998047,sub3,001,2025-04-19_01h36.59.890,task1,2021.2.3,59.1941764152155,
,,sha,11,11,left,0.2639615535736084,sub3,001,2025-04-19_01h36.59.890,task1,2021.2.3,59.1941764152155,
,,sha,11,99,right,0.17681193351745605,sub3,001,2025-04-19_01h36.59.890,task1,2021.2.3,59.1941764152155,
,,sha,11,77,right,0.23786115646362305,sub3,001,2025-04-19_01h36.59.890,task1,2021.2.3,59.1941764152155,
,,sha,11,44,right,0.4790492057800293,sub3,001,2025-04-19_01h36.59.890,task1,2021.2.3,59.1941764152155,
,,sha,11,77,right,0.17461705207824707,sub3,001,2025-04-19_01h36.59.890,task1,2021.2.3,59.1941764152155,
,,sha,11,22,left,0.42049574851989746,sub3,001,2025-04-19_01h36.59.890,task1,2021.2.3,59.1941764152155,
,,sha,11,22,left,0.24334454536437988,sub3,001,2025-04-19_01h36.59.890,task1,2021.2.3,59.1941764152155,
,,sha,11,44,left,0.199537992477417,sub3,001,2025-04-19_01h36.59.890,task1,2021.2.3,59.1941764152155,
,,sha,11,99,right,0.13169169425964355,sub3,001,2025-04-19_01h36.59.890,task1,2021.2.3,59.1941764152155,
,,sha,11,11,left,0.2731027603149414,sub3,001,2025-04-19_01h36.59.890,task1,2021.2.3,59.1941764152155,
,,sha,11,44,left,0.09729194641113281,sub3,001,2025-04-19_01h36.59.890,task1,2021.2.3,59.1941764152155,
,,sha,11,0,left,0.08963513374328613,sub3,001,2025-04-19_01h36.59.890,task1,2021.2.3,59.1941764152155,
,,sha,11,0,left,0.04748392105102539,sub3,001,2025-04-19_01h36.59.890,task1,2021.2.3,59.1941764152155,
,,sha,11,0,left,0.04241156578063965,sub3,001,2025-04-19_01h36.59.890,task1,2021.2.3,59.1941764152155,
,,sha,11,0,left,0.019394636154174805,sub3,001,2025-04-19_01h36.59.890,task1,2021.2.3,59.1941764152155,
,,sha,11,22,left,0.04510927200317383,sub3,001,2025-04-19_01h36.59.890,task1,2021.2.3,59.1941764152155,
,,sha,11,44,left,0.06363940238952637,sub3,001,2025-04-19_01h36.59.890,task1,2021.2.3,59.1941764152155,
,,sha,11,88,right,0.17576026916503906,sub3,001,2025-04-19_01h36.59.890,task1,2021.2.3,59.1941764152155,
,,sha,11,22,left,0.29265689849853516,sub3,001,2025-04-19_01h36.59.890,task1,2021.2.3,59.1941764152155,
,,sha,11,44,left,0.14047765731811523,sub3,001,2025-04-19_01h36.59.890,task1,2021.2.3,59.1941764152155,
,,sha,11,55,left,0.9625859260559082,sub3,001,2025-04-19_01h36.59.890,task1,2021.2.3,59.1941764152155,
,,sha,11,66,right,0.23863601684570312,sub3,001,2025-04-19_01h36.59.890,task1,2021.2.3,59.1941764152155,
,,sha,11,88,right,0.01769542694091797,sub3,001,2025-04-19_01h36.59.890,task1,2021.2.3,59.1941764152155,
,,sha,11,66,right,0.011587858200073242,sub3,001,2025-04-19_01h36.59.890,task1,2021.2.3,59.1941764152155,
